utrials.thisRepN,utrials.thisTrialN,utrials.thisN,utrials.thisIndex,trials_2.thisRepN,trials_2.thisTrialN,trials_2.thisN,trials_2.thisIndex,trials.thisRepN,trials.thisTrialN,trials.thisN,trials.thisIndex,trials_3.thisRepN,trials_3.thisTrialN,trials_3.thisN,trials_3.thisIndex,uIntrotext.started,uenter_resp.started,uenter_resp.keys,uenter_resp.rt,ukey_resp.started,Q.started,W.started,O.started,P.started,ukey_resp.keys,ukey_resp.rt,sad1.started,text_3.started,sad1.stopped,text_3.stopped,text_8.started,key_resp_5.started,key_resp_5.keys,key_resp_5.rt,text.started,enterresp.started,enterresp.keys,enterresp.rt,Optionq.started,optionw.started,optiono.started,Optionp.started,key_resp.started,Ql.started,Wl.started,Ol.started,Pl.started,Optionq.stopped,optionw.stopped,optiono.stopped,Optionp.stopped,key_resp.stopped,Ql.stopped,Wl.stopped,Ol.stopped,Pl.stopped,key_resp.keys,clk.started,sad.started,sad.stopped,text_2.started,clk.stopped,text_2.stopped,key_resp.rt,text_9.started,key_resp_4.started,key_resp_4.keys,key_resp_4.rt,text_4.started,Roll Number,Name,date,expName,psychopyVersion,frameRate,
,,,,,,,,,,,,,,,,13.438380799983861,13.438380799983861,space,6.366431900009047,,,,,,,,,,,,,,,,,,,,,,,,,,,,,,,,,,,,,,,,,,,,,,,,,,,,,2023-04-12_11h41.11.461,bandit task,2022.2.5,60.03006306086641,
0,0,0,0,,,,,,,,,,,,,,,,,19.861075699998764,19.861075699998764,19.861075699998764,19.861075699998764,19.861075699998764,q,1.0744817999948282,,,,,,,,,,,,,,,,,,,,,,,,,,,,,,,,,,,,,,,,,,,,,,2023-04-12_11h41.11.461,bandit task,2022.2.5,60.03006306086641,
1,0,1,0,,,,,,,,,,,,,,,,,21.688116300007096,21.688116300007096,21.688116300007096,21.688116300007096,21.688116300007096,q,0.30693520000204444,22.023222199990414,22.023222199990414,22.42461899999762,22.42461899999762,,,,,,,,,,,,,,,,,,,,,,,,,,,,,,,,,,,,,,,,,,2023-04-12_11h41.11.461,bandit task,2022.2.5,60.03006306086641,
2,0,2,0,,,,,,,,,,,,,,,,,22.42461899999762,22.42461899999762,22.42461899999762,22.42461899999762,22.42461899999762,q,0.2514216999989003,22.705752499983646,22.705752499983646,23.107805200008443,23.107805200008443,,,,,,,,,,,,,,,,,,,,,,,,,,,,,,,,,,,,,,,,,,2023-04-12_11h41.11.461,bandit task,2022.2.5,60.03006306086641,
3,0,3,0,,,,,,,,,,,,,,,,,23.107805200008443,23.107805200008443,23.107805200008443,23.107805200008443,23.107805200008443,q,0.1823636000044644,23.30528709999635,23.30528709999635,23.707186599989654,23.707186599989654,,,,,,,,,,,,,,,,,,,,,,,,,,,,,,,,,,,,,,,,,,2023-04-12_11h41.11.461,bandit task,2022.2.5,60.03006306086641,
4,0,4,0,,,,,,,,,,,,,,,,,23.707186599989654,23.707186599989654,23.707186599989654,23.707186599989654,23.707186599989654,q,0.07022580000921153,23.805071299982956,23.805071299982956,24.207403100008378,24.207403100008378,,,,,,,,,,,,,,,,,,,,,,,,,,,,,,,,,,,,,,,,,,2023-04-12_11h41.11.461,bandit task,2022.2.5,60.03006306086641,
5,0,5,0,,,,,,,,,,,,,,,,,24.207403100008378,24.207403100008378,24.207403100008378,24.207403100008378,24.207403100008378,q,0.03049139998620376,24.254716199997347,24.254716199997347,24.6568888000038,24.6568888000038,,,,,,,,,,,,,,,,,,,,,,,,,,,,,,,,,,,,,,,,,,2023-04-12_11h41.11.461,bandit task,2022.2.5,60.03006306086641,
6,0,6,0,,,,,,,,,,,,,,,,,24.6568888000038,24.6568888000038,24.6568888000038,24.6568888000038,24.6568888000038,q,0.04761020001024008,24.72129610000411,24.72129610000411,25.123717999988003,25.123717999988003,,,,,,,,,,,,,,,,,,,,,,,,,,,,,,,,,,,,,,,,,,2023-04-12_11h41.11.461,bandit task,2022.2.5,60.03006306086641,
7,0,7,0,,,,,,,,,,,,,,,,,25.123717999988003,25.123717999988003,25.123717999988003,25.123717999988003,25.123717999988003,q,0.01966099999845028,25.17089290000149,25.17089290000149,25.57307869999204,25.57307869999204,,,,,,,,,,,,,,,,,,,,,,,,,,,,,,,,,,,,,,,,,,2023-04-12_11h41.11.461,bandit task,2022.2.5,60.03006306086641,
8,0,8,0,,,,,,,,,,,,,,,,,25.57307869999204,25.57307869999204,25.57307869999204,25.57307869999204,25.57307869999204,q,0.046588399971369654,25.638712299987674,25.638712299987674,,,,,,,,,,,,,,,,,,,,,,,,,,,,,,,,,,,,,,,,,,,,2023-04-12_11h41.11.461,bandit task,2022.2.5,60.03006306086641,
9,0,9,0,,,,,,,,,,,,,,,,,26.05613009998342,26.05613009998342,26.05613009998342,26.05613009998342,26.05613009998342,q,0.04534740000963211,26.120754400006263,26.120754400006263,26.5224576999899,26.5224576999899,,,,,,,,,,,,,,,,,,,,,,,,,,,,,,,,,,,,,,,,,,2023-04-12_11h41.11.461,bandit task,2022.2.5,60.03006306086641,
10,0,10,0,,,,,,,,,,,,,,,,,26.5224576999899,26.5224576999899,26.5224576999899,26.5224576999899,26.5224576999899,q,0.019005099980859086,26.57031039998401,26.57031039998401,26.97209819999989,26.97209819999989,,,,,,,,,,,,,,,,,,,,,,,,,,,,,,,,,,,,,,,,,,2023-04-12_11h41.11.461,bandit task,2022.2.5,60.03006306086641,
11,0,11,0,,,,,,,,,,,,,,,,,26.97209819999989,26.97209819999989,26.97209819999989,26.97209819999989,26.97209819999989,q,0.013672800007043406,27.003266399988206,27.003266399988206,27.4053234999883,27.4053234999883,,,,,,,,,,,,,,,,,,,,,,,,,,,,,,,,,,,,,,,,,,2023-04-12_11h41.11.461,bandit task,2022.2.5,60.03006306086641,
12,0,12,0,,,,,,,,,,,,,,,,,27.4053234999883,27.4053234999883,27.4053234999883,27.4053234999883,27.4053234999883,q,0.0746664000034798,27.50333760000649,27.50333760000649,27.905043999984628,27.905043999984628,,,,,,,,,,,,,,,,,,,,,,,,,,,,,,,,,,,,,,,,,,2023-04-12_11h41.11.461,bandit task,2022.2.5,60.03006306086641,
13,0,13,0,,,,,,,,,,,,,,,,,27.905043999984628,27.905043999984628,27.905043999984628,27.905043999984628,27.905043999984628,q,0.13095099999918602,28.052906700002495,28.052906700002495,28.455083699984243,28.455083699984243,,,,,,,,,,,,,,,,,,,,,,,,,,,,,,,,,,,,,,,,,,2023-04-12_11h41.11.461,bandit task,2022.2.5,60.03006306086641,
14,0,14,0,,,,,,,,,,,,,,,,,28.455083699984243,28.455083699984243,28.455083699984243,28.455083699984243,28.455083699984243,q,0.08017289999406785,28.554226200008998,28.554226200008998,,,,,,,,,,,,,,,,,,,,,,,,,,,,,,,,,,,,,,,,,,,,2023-04-12_11h41.11.461,bandit task,2022.2.5,60.03006306086641,
15,0,15,0,,,,,,,,,,,,,,,,,28.9713413999998,28.9713413999998,28.9713413999998,28.9713413999998,28.9713413999998,q,0.06989610000164248,29.06901320000179,29.06901320000179,29.470887300005415,29.470887300005415,,,,,,,,,,,,,,,,,,,,,,,,,,,,,,,,,,,,,,,,,,2023-04-12_11h41.11.461,bandit task,2022.2.5,60.03006306086641,
16,0,16,0,,,,,,,,,,,,,,,,,29.470887300005415,29.470887300005415,29.470887300005415,29.470887300005415,29.470887300005415,q,0.043782199994893745,29.535523300000932,29.535523300000932,29.93749499999103,29.93749499999103,,,,,,,,,,,,,,,,,,,,,,,,,,,,,,,,,,,,,,,,,,2023-04-12_11h41.11.461,bandit task,2022.2.5,60.03006306086641,
17,0,17,0,,,,,,,,,,,,,,,,,29.93749499999103,29.93749499999103,29.93749499999103,29.93749499999103,29.93749499999103,q,0.05777660000603646,30.01862610000535,30.01862610000535,30.420300800004043,30.420300800004043,,,,,,,,,,,,,,,,,,,,,,,,,,,,,,,,,,,,,,,,,,2023-04-12_11h41.11.461,bandit task,2022.2.5,60.03006306086641,
18,0,18,0,,,,,,,,,,,,,,,,,30.420300800004043,30.420300800004043,30.420300800004043,30.420300800004043,30.420300800004043,q,0.05746859998907894,30.501716800004942,30.501716800004942,30.90343489998486,30.90343489998486,,,,,,,,,,,,,,,,,,,,,,,,,,,,,,,,,,,,,,,,,,2023-04-12_11h41.11.461,bandit task,2022.2.5,60.03006306086641,
19,0,19,0,,,,,,,,,,,,,,,,,30.90343489998486,30.90343489998486,30.90343489998486,30.90343489998486,30.90343489998486,q,0.1013391999877058,31.04069910000544,31.04069910000544,,,,,,,,,,,,,,,,,,,,,,,,,,,,,,,,,,,,,,,,,,,,2023-04-12_11h41.11.461,bandit task,2022.2.5,60.03006306086641,
20,0,20,0,,,,,,,,,,,,,,,,,31.45369299998856,31.45369299998856,31.45369299998856,31.45369299998856,31.45369299998856,q,0.0336574999964796,31.51782819998334,31.51782819998334,31.919944699999178,31.919944699999178,,,,,,,,,,,,,,,,,,,,,,,,,,,,,,,,,,,,,,,,,,2023-04-12_11h41.11.461,bandit task,2022.2.5,60.03006306086641,
21,0,21,0,,,,,,,,,,,,,,,,,31.919944699999178,31.919944699999178,31.919944699999178,31.919944699999178,31.919944699999178,q,0.041570199973648414,31.984297499991953,31.984297499991953,32.38621979998425,32.38621979998425,,,,,,,,,,,,,,,,,,,,,,,,,,,,,,,,,,,,,,,,,,2023-04-12_11h41.11.461,bandit task,2022.2.5,60.03006306086641,
22,0,22,0,,,,,,,,,,,,,,,,,32.38621979998425,32.38621979998425,32.38621979998425,32.38621979998425,32.38621979998425,q,0.056372799997916445,32.46721020000405,32.46721020000405,32.86949929999537,32.86949929999537,,,,,,,,,,,,,,,,,,,,,,,,,,,,,,,,,,,,,,,,,,2023-04-12_11h41.11.461,bandit task,2022.2.5,60.03006306086641,
23,0,23,0,,,,,,,,,,,,,,,,,32.86949929999537,32.86949929999537,32.86949929999537,32.86949929999537,32.86949929999537,q,0.0066559999831952155,32.900454199989326,32.900454199989326,33.30241340000066,33.30241340000066,,,,,,,,,,,,,,,,,,,,,,,,,,,,,,,,,,,,,,,,,,2023-04-12_11h41.11.461,bandit task,2022.2.5,60.03006306086641,
24,0,24,0,,,,,,,,,,,,,,,,,33.30241340000066,33.30241340000066,33.30241340000066,33.30241340000066,33.30241340000066,q,0.24752609999268316,33.5666196999955,33.5666196999955,33.968746600003215,33.968746600003215,,,,,,,,,,,,,,,,,,,,,,,,,,,,,,,,,,,,,,,,,,2023-04-12_11h41.11.461,bandit task,2022.2.5,60.03006306086641,
25,0,25,0,,,,,,,,,,,,,,,,,33.968746600003215,33.968746600003215,33.968746600003215,33.968746600003215,33.968746600003215,q,0.04999239998869598,34.03315850000945,34.03315850000945,34.43507669999963,34.43507669999963,,,,,,,,,,,,,,,,,,,,,,,,,,,,,,,,,,,,,,,,,,2023-04-12_11h41.11.461,bandit task,2022.2.5,60.03006306086641,
26,0,26,0,,,,,,,,,,,,,,,,,34.43507669999963,34.43507669999963,34.43507669999963,34.43507669999963,34.43507669999963,q,0.08323219997691922,34.53292130000773,34.53292130000773,34.934959400008665,34.934959400008665,,,,,,,,,,,,,,,,,,,,,,,,,,,,,,,,,,,,,,,,,,2023-04-12_11h41.11.461,bandit task,2022.2.5,60.03006306086641,
27,0,27,0,,,,,,,,,,,,,,,,,34.934959400008665,34.934959400008665,34.934959400008665,34.934959400008665,34.934959400008665,w,0.15838010000879876,35.11598899998353,35.11598899998353,35.51805320000858,35.51805320000858,,,,,,,,,,,,,,,,,,,,,,,,,,,,,,,,,,,,,,,,,,2023-04-12_11h41.11.461,bandit task,2022.2.5,60.03006306086641,
28,0,28,0,,,,,,,,,,,,,,,,,35.51805320000858,35.51805320000858,35.51805320000858,35.51805320000858,35.51805320000858,w,0.0016835000133141875,35.54941919998964,35.54941919998964,35.95106379999197,35.95106379999197,,,,,,,,,,,,,,,,,,,,,,,,,,,,,,,,,,,,,,,,,,2023-04-12_11h41.11.461,bandit task,2022.2.5,60.03006306086641,
29,0,29,0,,,,,,,,,,,,,,,,,35.95106379999197,35.95106379999197,35.95106379999197,35.95106379999197,35.95106379999197,w,0.20529589999932796,36.1820432000095,36.1820432000095,36.584163399995305,36.584163399995305,,,,,,,,,,,,,,,,,,,,,,,,,,,,,,,,,,,,,,,,,,2023-04-12_11h41.11.461,bandit task,2022.2.5,60.03006306086641,
30,0,30,0,,,,,,,,,,,,,,,,,36.584163399995305,36.584163399995305,36.584163399995305,36.584163399995305,36.584163399995305,w,0.031602000002749264,36.63196389999939,36.63196389999939,37.0335880999919,37.0335880999919,,,,,,,,,,,,,,,,,,,,,,,,,,,,,,,,,,,,,,,,,,2023-04-12_11h41.11.461,bandit task,2022.2.5,60.03006306086641,
31,0,31,0,,,,,,,,,,,,,,,,,37.0335880999919,37.0335880999919,37.0335880999919,37.0335880999919,37.0335880999919,w,0.023882999987108633,37.0816027999972,37.0816027999972,37.48340910000843,37.48340910000843,,,,,,,,,,,,,,,,,,,,,,,,,,,,,,,,,,,,,,,,,,2023-04-12_11h41.11.461,bandit task,2022.2.5,60.03006306086641,
32,0,32,0,,,,,,,,,,,,,,,,,37.48340910000843,37.48340910000843,37.48340910000843,37.48340910000843,37.48340910000843,w,0.02291170001262799,37.53123560000677,37.53123560000677,37.9334216999996,37.9334216999996,,,,,,,,,,,,,,,,,,,,,,,,,,,,,,,,,,,,,,,,,,2023-04-12_11h41.11.461,bandit task,2022.2.5,60.03006306086641,
33,0,33,0,,,,,,,,,,,,,,,,,37.9334216999996,37.9334216999996,37.9334216999996,37.9334216999996,37.9334216999996,o,0.03268309999839403,37.98123909998685,37.98123909998685,38.38296839999384,38.38296839999384,,,,,,,,,,,,,,,,,,,,,,,,,,,,,,,,,,,,,,,,,,2023-04-12_11h41.11.461,bandit task,2022.2.5,60.03006306086641,
34,0,34,0,,,,,,,,,,,,,,,,,38.38296839999384,38.38296839999384,38.38296839999384,38.38296839999384,38.38296839999384,o,0.00335279997671023,38.41425729999901,38.41425729999901,38.816257600003155,38.816257600003155,,,,,,,,,,,,,,,,,,,,,,,,,,,,,,,,,,,,,,,,,,2023-04-12_11h41.11.461,bandit task,2022.2.5,60.03006306086641,
35,0,35,0,,,,,,,,,,,,,,,,,38.816257600003155,38.816257600003155,38.816257600003155,38.816257600003155,38.816257600003155,o,0.1867915000184439,39.03062050000881,39.03062050000881,39.432372099981876,39.432372099981876,,,,,,,,,,,,,,,,,,,,,,,,,,,,,,,,,,,,,,,,,,2023-04-12_11h41.11.461,bandit task,2022.2.5,60.03006306086641,
36,0,36,0,,,,,,,,,,,,,,,,,39.432372099981876,39.432372099981876,39.432372099981876,39.432372099981876,39.432372099981876,o,0.1748412000015378,39.630266099993605,39.630266099993605,40.032219199987594,40.032219199987594,,,,,,,,,,,,,,,,,,,,,,,,,,,,,,,,,,,,,,,,,,2023-04-12_11h41.11.461,bandit task,2022.2.5,60.03006306086641,
37,0,37,0,,,,,,,,,,,,,,,,,40.032219199987594,40.032219199987594,40.032219199987594,40.032219199987594,40.032219199987594,o,0.0422215000144206,40.096896100003505,40.096896100003505,40.49874949999503,40.49874949999503,,,,,,,,,,,,,,,,,,,,,,,,,,,,,,,,,,,,,,,,,,2023-04-12_11h41.11.461,bandit task,2022.2.5,60.03006306086641,
38,0,38,0,,,,,,,,,,,,,,,,,40.49874949999503,40.49874949999503,40.49874949999503,40.49874949999503,40.49874949999503,p,0.13436809997074306,40.663194199994905,40.663194199994905,41.06534619999002,41.06534619999002,,,,,,,,,,,,,,,,,,,,,,,,,,,,,,,,,,,,,,,,,,2023-04-12_11h41.11.461,bandit task,2022.2.5,60.03006306086641,
39,0,39,0,,,,,,,,,,,,,,,,,41.06534619999002,41.06534619999002,41.06534619999002,41.06534619999002,41.06534619999002,p,0.20693409998784773,41.29614620000939,41.29614620000939,41.698119100008626,41.698119100008626,,,,,,,,,,,,,,,,,,,,,,,,,,,,,,,,,,,,,,,,,,2023-04-12_11h41.11.461,bandit task,2022.2.5,60.03006306086641,
40,0,40,0,,,,,,,,,,,,,,,,,41.698119100008626,41.698119100008626,41.698119100008626,41.698119100008626,41.698119100008626,p,0.01420420000795275,41.729145099991,41.729145099991,42.131305399991106,42.131305399991106,,,,,,,,,,,,,,,,,,,,,,,,,,,,,,,,,,,,,,,,,,2023-04-12_11h41.11.461,bandit task,2022.2.5,60.03006306086641,
41,0,41,0,,,,,,,,,,,,,,,,,42.131305399991106,42.131305399991106,42.131305399991106,42.131305399991106,42.131305399991106,p,0.0169834999833256,42.17888550000498,42.17888550000498,42.58122769999318,42.58122769999318,,,,,,,,,,,,,,,,,,,,,,,,,,,,,,,,,,,,,,,,,,2023-04-12_11h41.11.461,bandit task,2022.2.5,60.03006306086641,
42,0,42,0,,,,,,,,,,,,,,,,,42.58122769999318,42.58122769999318,42.58122769999318,42.58122769999318,42.58122769999318,p,0.20801450000726618,42.81200109998463,42.81200109998463,43.21401369999512,43.21401369999512,,,,,,,,,,,,,,,,,,,,,,,,,,,,,,,,,,,,,,,,,,2023-04-12_11h41.11.461,bandit task,2022.2.5,60.03006306086641,
43,0,43,0,,,,,,,,,,,,,,,,,43.21401369999512,43.21401369999512,43.21401369999512,43.21401369999512,43.21401369999512,w,0.03792289999546483,43.27963989999262,43.27963989999262,,,,,,,,,,,,,,,,,,,,,,,,,,,,,,,,,,,,,,,,,,,,2023-04-12_11h41.11.461,bandit task,2022.2.5,60.03006306086641,
44,0,44,0,,,,,,,,,,,,,,,,,43.69688259999384,43.69688259999384,43.69688259999384,43.69688259999384,43.69688259999384,w,0.18623520000255667,43.91147029999411,43.91147029999411,44.31338659999892,44.31338659999892,,,,,,,,,,,,,,,,,,,,,,,,,,,,,,,,,,,,,,,,,,2023-04-12_11h41.11.461,bandit task,2022.2.5,60.03006306086641,
45,0,45,0,,,,,,,,,,,,,,,,,44.31338659999892,44.31338659999892,44.31338659999892,44.31338659999892,44.31338659999892,w,0.0013051999849267304,44.34477229998447,44.34477229998447,44.74653350000153,44.74653350000153,,,,,,,,,,,,,,,,,,,,,,,,,,,,,,,,,,,,,,,,,,2023-04-12_11h41.11.461,bandit task,2022.2.5,60.03006306086641,
46,0,46,0,,,,,,,,,,,,,,,,,44.74653350000153,44.74653350000153,44.74653350000153,44.74653350000153,44.74653350000153,q,0.19761099998140708,44.960894299991196,44.960894299991196,45.36276039999211,45.36276039999211,,,,,,,,,,,,,,,,,,,,,,,,,,,,,,,,,,,,,,,,,,2023-04-12_11h41.11.461,bandit task,2022.2.5,60.03006306086641,
47,0,47,0,,,,,,,,,,,,,,,,,45.36276039999211,45.36276039999211,45.36276039999211,45.36276039999211,45.36276039999211,q,0.2622198000026401,45.64380789999268,45.64380789999268,46.045717600005446,46.045717600005446,,,,,,,,,,,,,,,,,,,,,,,,,,,,,,,,,,,,,,,,,,2023-04-12_11h41.11.461,bandit task,2022.2.5,60.03006306086641,
48,0,48,0,,,,,,,,,,,,,,,,,46.045717600005446,46.045717600005446,46.045717600005446,46.045717600005446,46.045717600005446,q,0.0466203999822028,46.11032730000443,46.11032730000443,46.51212880000821,46.51212880000821,,,,,,,,,,,,,,,,,,,,,,,,,,,,,,,,,,,,,,,,,,2023-04-12_11h41.11.461,bandit task,2022.2.5,60.03006306086641,
49,0,49,0,,,,,,,,,,,,,,,,,46.51212880000821,46.51212880000821,46.51212880000821,46.51212880000821,46.51212880000821,q,0.03313739999430254,46.56002410000656,46.56002410000656,46.96230290000676,46.96230290000676,,,,,,,,,,,,,,,,,,,,,,,,,,,,,,,,,,,,,,,,,,2023-04-12_11h41.11.461,bandit task,2022.2.5,60.03006306086641,
50,0,50,0,,,,,,,,,,,,,,,,,46.96230290000676,46.96230290000676,46.96230290000676,46.96230290000676,46.96230290000676,q,0.04042229999322444,47.026421999995364,47.026421999995364,47.42836130000069,47.42836130000069,,,,,,,,,,,,,,,,,,,,,,,,,,,,,,,,,,,,,,,,,,2023-04-12_11h41.11.461,bandit task,2022.2.5,60.03006306086641,
51,0,51,0,,,,,,,,,,,,,,,,,47.42836130000069,47.42836130000069,47.42836130000069,47.42836130000069,47.42836130000069,q,0.040355199977057055,47.49299520000932,47.49299520000932,47.89516580000054,47.89516580000054,,,,,,,,,,,,,,,,,,,,,,,,,,,,,,,,,,,,,,,,,,2023-04-12_11h41.11.461,bandit task,2022.2.5,60.03006306086641,
52,0,52,0,,,,,,,,,,,,,,,,,47.89516580000054,47.89516580000054,47.89516580000054,47.89516580000054,47.89516580000054,q,0.030924999999115244,47.94252479998977,47.94252479998977,48.34481899999082,48.34481899999082,,,,,,,,,,,,,,,,,,,,,,,,,,,,,,,,,,,,,,,,,,2023-04-12_11h41.11.461,bandit task,2022.2.5,60.03006306086641,
53,0,53,0,,,,,,,,,,,,,,,,,48.34481899999082,48.34481899999082,48.34481899999082,48.34481899999082,48.34481899999082,q,0.06531110001378693,48.43212729998049,48.43212729998049,,,,,,,,,,,,,,,,,,,,,,,,,,,,,,,,,,,,,,,,,,,,2023-04-12_11h41.11.461,bandit task,2022.2.5,60.03006306086641,
54,0,54,0,,,,,,,,,,,,,,,,,48.84442029998172,48.84442029998172,48.84442029998172,48.84442029998172,48.84442029998172,q,0.03837500000372529,48.91041479998967,48.91041479998967,,,,,,,,,,,,,,,,,,,,,,,,,,,,,,,,,,,,,,,,,,,,2023-04-12_11h41.11.461,bandit task,2022.2.5,60.03006306086641,
55,0,55,0,,,,,,,,,,,,,,,,,49.32727949999389,49.32727949999389,49.32727949999389,49.32727949999389,49.32727949999389,q,0.05152300000190735,49.40887799998745,49.40887799998745,49.810603599995375,49.810603599995375,,,,,,,,,,,,,,,,,,,,,,,,,,,,,,,,,,,,,,,,,,2023-04-12_11h41.11.461,bandit task,2022.2.5,60.03006306086641,
56,0,56,0,,,,,,,,,,,,,,,,,49.810603599995375,49.810603599995375,49.810603599995375,49.810603599995375,49.810603599995375,q,0.05398060000152327,49.891769299982116,49.891769299982116,50.293551799986744,50.293551799986744,,,,,,,,,,,,,,,,,,,,,,,,,,,,,,,,,,,,,,,,,,2023-04-12_11h41.11.461,bandit task,2022.2.5,60.03006306086641,
57,0,57,0,,,,,,,,,,,,,,,,,50.293551799986744,50.293551799986744,50.293551799986744,50.293551799986744,50.293551799986744,q,0.053879199986113235,50.37470739998389,50.37470739998389,50.77686579999863,50.77686579999863,,,,,,,,,,,,,,,,,,,,,,,,,,,,,,,,,,,,,,,,,,2023-04-12_11h41.11.461,bandit task,2022.2.5,60.03006306086641,
58,0,58,0,,,,,,,,,,,,,,,,,50.77686579999863,50.77686579999863,50.77686579999863,50.77686579999863,50.77686579999863,q,0.015842199994949624,50.80942909998703,50.80942909998703,,,,,,,,,,,,,,,,,,,,,,,,,,,,,,,,,,,,,,,,,,,,2023-04-12_11h41.11.461,bandit task,2022.2.5,60.03006306086641,
59,0,59,0,,,,,,,,,,,,,,,,,51.22649609998916,51.22649609998916,51.22649609998916,51.22649609998916,51.22649609998916,q,0.05142020000494085,51.307945699983975,51.307945699983975,51.70951739998418,51.70951739998418,,,,,,,,,,,,,,,,,,,,,,,,,,,,,,,,,,,,,,,,,,2023-04-12_11h41.11.461,bandit task,2022.2.5,60.03006306086641,
60,0,60,0,,,,,,,,,,,,,,,,,51.70951739998418,51.70951739998418,51.70951739998418,51.70951739998418,51.70951739998418,q,0.08114100000238977,51.807352400006494,51.807352400006494,52.209320199996,52.209320199996,,,,,,,,,,,,,,,,,,,,,,,,,,,,,,,,,,,,,,,,,,2023-04-12_11h41.11.461,bandit task,2022.2.5,60.03006306086641,
61,0,61,0,,,,,,,,,,,,,,,,,52.209320199996,52.209320199996,52.209320199996,52.209320199996,52.209320199996,q,0.08537310000974685,52.32758539999486,52.32758539999486,,,,,,,,,,,,,,,,,,,,,,,,,,,,,,,,,,,,,,,,,,,,2023-04-12_11h41.11.461,bandit task,2022.2.5,60.03006306086641,
62,0,62,0,,,,,,,,,,,,,,,,,52.742420599999605,52.742420599999605,52.742420599999605,52.742420599999605,52.742420599999605,q,0.046342499990714714,52.8068326000066,52.8068326000066,53.209123200009344,53.209123200009344,,,,,,,,,,,,,,,,,,,,,,,,,,,,,,,,,,,,,,,,,,2023-04-12_11h41.11.461,bandit task,2022.2.5,60.03006306086641,
63,0,63,0,,,,,,,,,,,,,,,,,53.209123200009344,53.209123200009344,53.209123200009344,53.209123200009344,53.209123200009344,q,0.08343040000181645,53.32350800000131,53.32350800000131,53.72522989998106,53.72522989998106,,,,,,,,,,,,,,,,,,,,,,,,,,,,,,,,,,,,,,,,,,2023-04-12_11h41.11.461,bandit task,2022.2.5,60.03006306086641,
64,0,64,0,,,,,,,,,,,,,,,,,53.72522989998106,53.72522989998106,53.72522989998106,53.72522989998106,53.72522989998106,q,0.053256999992299825,53.80636950000189,53.80636950000189,54.2082306999946,54.2082306999946,,,,,,,,,,,,,,,,,,,,,,,,,,,,,,,,,,,,,,,,,,2023-04-12_11h41.11.461,bandit task,2022.2.5,60.03006306086641,
65,0,65,0,,,,,,,,,,,,,,,,,54.2082306999946,54.2082306999946,54.2082306999946,54.2082306999946,54.2082306999946,q,0.03529669999261387,54.273007999989204,54.273007999989204,54.67472260000068,54.67472260000068,,,,,,,,,,,,,,,,,,,,,,,,,,,,,,,,,,,,,,,,,,2023-04-12_11h41.11.461,bandit task,2022.2.5,60.03006306086641,
66,0,66,0,,,,,,,,,,,,,,,,,54.67472260000068,54.67472260000068,54.67472260000068,54.67472260000068,54.67472260000068,q,0.09248960000695661,54.78924509999342,54.78924509999342,55.191226599999936,55.191226599999936,,,,,,,,,,,,,,,,,,,,,,,,,,,,,,,,,,,,,,,,,,2023-04-12_11h41.11.461,bandit task,2022.2.5,60.03006306086641,
67,0,67,0,,,,,,,,,,,,,,,,,55.191226599999936,55.191226599999936,55.191226599999936,55.191226599999936,55.191226599999936,q,0.05363140002009459,55.27360970000154,55.27360970000154,,,,,,,,,,,,,,,,,,,,,,,,,,,,,,,,,,,,,,,,,,,,2023-04-12_11h41.11.461,bandit task,2022.2.5,60.03006306086641,
68,0,68,0,,,,,,,,,,,,,,,,,55.69072159999632,55.69072159999632,55.69072159999632,55.69072159999632,55.69072159999632,q,0.008308599994052202,55.72207069999422,55.72207069999422,56.124190900009125,56.124190900009125,,,,,,,,,,,,,,,,,,,,,,,,,,,,,,,,,,,,,,,,,,2023-04-12_11h41.11.461,bandit task,2022.2.5,60.03006306086641,
69,0,69,0,,,,,,,,,,,,,,,,,56.124190900009125,56.124190900009125,56.124190900009125,56.124190900009125,56.124190900009125,q,0.08709210000233725,56.23847499999101,56.23847499999101,56.64051009999821,56.64051009999821,,,,,,,,,,,,,,,,,,,,,,,,,,,,,,,,,,,,,,,,,,2023-04-12_11h41.11.461,bandit task,2022.2.5,60.03006306086641,
70,0,70,0,,,,,,,,,,,,,,,,,56.64051009999821,56.64051009999821,56.64051009999821,56.64051009999821,56.64051009999821,q,0.08529540000017732,56.76087880000705,56.76087880000705,,,,,,,,,,,,,,,,,,,,,,,,,,,,,,,,,,,,,,,,,,,,2023-04-12_11h41.11.461,bandit task,2022.2.5,60.03006306086641,
71,0,71,0,,,,,,,,,,,,,,,,,57.1733900999825,57.1733900999825,57.1733900999825,57.1733900999825,57.1733900999825,q,0.1327875999850221,57.32115299999714,57.32115299999714,57.723084299999755,57.723084299999755,,,,,,,,,,,,,,,,,,,,,,,,,,,,,,,,,,,,,,,,,,2023-04-12_11h41.11.461,bandit task,2022.2.5,60.03006306086641,
72,0,72,0,,,,,,,,,,,,,,,,,57.723084299999755,57.723084299999755,57.723084299999755,57.723084299999755,57.723084299999755,q,0.07912469998700544,57.82120079998276,57.82120079998276,58.22303649998503,58.22303649998503,,,,,,,,,,,,,,,,,,,,,,,,,,,,,,,,,,,,,,,,,,2023-04-12_11h41.11.461,bandit task,2022.2.5,60.03006306086641,
73,0,73,0,,,,,,,,,,,,,,,,,58.22303649998503,58.22303649998503,58.22303649998503,58.22303649998503,58.22303649998503,q,0.00891490001231432,58.25394289998803,58.25394289998803,58.656148899986874,58.656148899986874,,,,,,,,,,,,,,,,,,,,,,,,,,,,,,,,,,,,,,,,,,2023-04-12_11h41.11.461,bandit task,2022.2.5,60.03006306086641,
74,0,74,0,,,,,,,,,,,,,,,,,58.656148899986874,58.656148899986874,58.656148899986874,58.656148899986874,58.656148899986874,q,0.00890289997914806,58.6910932000028,58.6910932000028,,,,,,,,,,,,,,,,,,,,,,,,,,,,,,,,,,,,,,,,,,,,2023-04-12_11h41.11.461,bandit task,2022.2.5,60.03006306086641,
75,0,75,0,,,,,,,,,,,,,,,,,59.105875399982324,59.105875399982324,59.105875399982324,59.105875399982324,59.105875399982324,q,0.0639767000102438,59.18711379999877,59.18711379999877,59.58892290000222,59.58892290000222,,,,,,,,,,,,,,,,,,,,,,,,,,,,,,,,,,,,,,,,,,2023-04-12_11h41.11.461,bandit task,2022.2.5,60.03006306086641,
76,0,76,0,,,,,,,,,,,,,,,,,59.58892290000222,59.58892290000222,59.58892290000222,59.58892290000222,59.58892290000222,q,0.05371659999946132,59.67002940000384,59.67002940000384,60.07192529999884,60.07192529999884,,,,,,,,,,,,,,,,,,,,,,,,,,,,,,,,,,,,,,,,,,2023-04-12_11h41.11.461,bandit task,2022.2.5,60.03006306086641,
77,0,77,0,,,,,,,,,,,,,,,,,60.07192529999884,60.07192529999884,60.07192529999884,60.07192529999884,60.07192529999884,q,0.08074800000758842,60.16969720000634,60.16969720000634,60.571968600008404,60.571968600008404,,,,,,,,,,,,,,,,,,,,,,,,,,,,,,,,,,,,,,,,,,2023-04-12_11h41.11.461,bandit task,2022.2.5,60.03006306086641,
78,0,78,0,,,,,,,,,,,,,,,,,60.571968600008404,60.571968600008404,60.571968600008404,60.571968600008404,60.571968600008404,q,0.11046019999776036,60.703014200000325,60.703014200000325,61.10490330000175,61.10490330000175,,,,,,,,,,,,,,,,,,,,,,,,,,,,,,,,,,,,,,,,,,2023-04-12_11h41.11.461,bandit task,2022.2.5,60.03006306086641,
79,0,79,0,,,,,,,,,,,,,,,,,61.10490330000175,61.10490330000175,61.10490330000175,61.10490330000175,61.10490330000175,q,0.09623940000892617,61.21916469998541,61.21916469998541,61.62128409999423,61.62128409999423,,,,,,,,,,,,,,,,,,,,,,,,,,,,,,,,,,,,,,,,,,2023-04-12_11h41.11.461,bandit task,2022.2.5,60.03006306086641,
80,0,80,0,,,,,,,,,,,,,,,,,61.62128409999423,61.62128409999423,61.62128409999423,61.62128409999423,61.62128409999423,q,0.06927619999623857,61.72032389999367,61.72032389999367,,,,,,,,,,,,,,,,,,,,,,,,,,,,,,,,,,,,,,,,,,,,2023-04-12_11h41.11.461,bandit task,2022.2.5,60.03006306086641,
81,0,81,0,,,,,,,,,,,,,,,,,62.13762059999863,62.13762059999863,62.13762059999863,62.13762059999863,62.13762059999863,q,0.07240199999068864,62.23532229999546,62.23532229999546,62.63797360000899,62.63797360000899,,,,,,,,,,,,,,,,,,,,,,,,,,,,,,,,,,,,,,,,,,2023-04-12_11h41.11.461,bandit task,2022.2.5,60.03006306086641,
82,0,82,0,,,,,,,,,,,,,,,,,62.63797360000899,62.63797360000899,62.63797360000899,62.63797360000899,62.63797360000899,q,0.1044582000176888,62.76856389999739,62.76856389999739,63.170254299999215,63.170254299999215,,,,,,,,,,,,,,,,,,,,,,,,,,,,,,,,,,,,,,,,,,2023-04-12_11h41.11.461,bandit task,2022.2.5,60.03006306086641,
83,0,83,0,,,,,,,,,,,,,,,,,63.170254299999215,63.170254299999215,63.170254299999215,63.170254299999215,63.170254299999215,q,0.05825810000533238,63.25146669999231,63.25146669999231,63.65339990000939,63.65339990000939,,,,,,,,,,,,,,,,,,,,,,,,,,,,,,,,,,,,,,,,,,2023-04-12_11h41.11.461,bandit task,2022.2.5,60.03006306086641,
84,0,84,0,,,,,,,,,,,,,,,,,63.65339990000939,63.65339990000939,63.65339990000939,63.65339990000939,63.65339990000939,q,0.08239850000245497,63.75138609998976,63.75138609998976,64.15316059999168,64.15316059999168,,,,,,,,,,,,,,,,,,,,,,,,,,,,,,,,,,,,,,,,,,2023-04-12_11h41.11.461,bandit task,2022.2.5,60.03006306086641,
85,0,85,0,,,,,,,,,,,,,,,,,64.15316059999168,64.15316059999168,64.15316059999168,64.15316059999168,64.15316059999168,q,0.10120040000765584,64.29035880000447,64.29035880000447,,,,,,,,,,,,,,,,,,,,,,,,,,,,,,,,,,,,,,,,,,,,2023-04-12_11h41.11.461,bandit task,2022.2.5,60.03006306086641,
86,0,86,0,,,,,,,,,,,,,,,,,64.70307809999213,64.70307809999213,64.70307809999213,64.70307809999213,64.70307809999213,q,0.0763077000156045,64.80088199998136,64.80088199998136,65.20260679998319,65.20260679998319,,,,,,,,,,,,,,,,,,,,,,,,,,,,,,,,,,,,,,,,,,2023-04-12_11h41.11.461,bandit task,2022.2.5,60.03006306086641,
87,0,87,0,,,,,,,,,,,,,,,,,65.20260679998319,65.20260679998319,65.20260679998319,65.20260679998319,65.20260679998319,w,0.19543009999324568,65.42255659998045,65.42255659998045,,,,,,,,,,,,,,,,,,,,,,,,,,,,,,,,,,,,,,,,,,,,2023-04-12_11h41.11.461,bandit task,2022.2.5,60.03006306086641,
88,0,88,0,,,,,,,,,,,,,,,,,65.83580619998975,65.83580619998975,65.83580619998975,65.83580619998975,65.83580619998975,w,0.004023000015877187,65.86686760000885,65.86686760000885,66.26884479998262,66.26884479998262,,,,,,,,,,,,,,,,,,,,,,,,,,,,,,,,,,,,,,,,,,2023-04-12_11h41.11.461,bandit task,2022.2.5,60.03006306086641,
89,0,89,0,,,,,,,,,,,,,,,,,66.26884479998262,66.26884479998262,66.26884479998262,66.26884479998262,66.26884479998262,w,0.013178299996070564,66.30260339999222,66.30260339999222,,,,,,,,,,,,,,,,,,,,,,,,,,,,,,,,,,,,,,,,,,,,2023-04-12_11h41.11.461,bandit task,2022.2.5,60.03006306086641,
90,0,90,0,,,,,,,,,,,,,,,,,66.71877700000186,66.71877700000186,66.71877700000186,66.71877700000186,66.71877700000186,w,0.013769600016530603,66.74967059999472,66.74967059999472,67.15157469999394,67.15157469999394,,,,,,,,,,,,,,,,,,,,,,,,,,,,,,,,,,,,,,,,,,2023-04-12_11h41.11.461,bandit task,2022.2.5,60.03006306086641,
91,0,91,0,,,,,,,,,,,,,,,,,67.15157469999394,67.15157469999394,67.15157469999394,67.15157469999394,67.15157469999394,w,0.05964229998062365,67.23279129998991,67.23279129998991,67.634884900006,67.634884900006,,,,,,,,,,,,,,,,,,,,,,,,,,,,,,,,,,,,,,,,,,2023-04-12_11h41.11.461,bandit task,2022.2.5,60.03006306086641,
92,0,92,0,,,,,,,,,,,,,,,,,67.634884900006,67.634884900006,67.634884900006,67.634884900006,67.634884900006,w,0.04908810000051744,67.69918140000664,67.69918140000664,68.10140980000142,68.10140980000142,,,,,,,,,,,,,,,,,,,,,,,,,,,,,,,,,,,,,,,,,,2023-04-12_11h41.11.461,bandit task,2022.2.5,60.03006306086641,
93,0,93,0,,,,,,,,,,,,,,,,,68.10140980000142,68.10140980000142,68.10140980000142,68.10140980000142,68.10140980000142,w,0.06790899997577071,68.19892870000331,68.19892870000331,68.60096149999299,68.60096149999299,,,,,,,,,,,,,,,,,,,,,,,,,,,,,,,,,,,,,,,,,,2023-04-12_11h41.11.461,bandit task,2022.2.5,60.03006306086641,
94,0,94,0,,,,,,,,,,,,,,,,,68.60096149999299,68.60096149999299,68.60096149999299,68.60096149999299,68.60096149999299,w,0.0795372000138741,68.69867290000548,68.69867290000548,69.10061059999862,69.10061059999862,,,,,,,,,,,,,,,,,,,,,,,,,,,,,,,,,,,,,,,,,,2023-04-12_11h41.11.461,bandit task,2022.2.5,60.03006306086641,
95,0,95,0,,,,,,,,,,,,,,,,,69.10061059999862,69.10061059999862,69.10061059999862,69.10061059999862,69.10061059999862,w,0.14156260000891052,69.26510200000484,69.26510200000484,69.66726849999395,69.66726849999395,,,,,,,,,,,,,,,,,,,,,,,,,,,,,,,,,,,,,,,,,,2023-04-12_11h41.11.461,bandit task,2022.2.5,60.03006306086641,
96,0,96,0,,,,,,,,,,,,,,,,,69.66726849999395,69.66726849999395,69.66726849999395,69.66726849999395,69.66726849999395,w,0.021585200011031702,69.71929730000556,69.71929730000556,,,,,,,,,,,,,,,,,,,,,,,,,,,,,,,,,,,,,,,,,,,,2023-04-12_11h41.11.461,bandit task,2022.2.5,60.03006306086641,
97,0,97,0,,,,,,,,,,,,,,,,,70.13355490000686,70.13355490000686,70.13355490000686,70.13355490000686,70.13355490000686,w,0.03644180000992492,70.19795760000125,70.19795760000125,70.60015929999645,70.60015929999645,,,,,,,,,,,,,,,,,,,,,,,,,,,,,,,,,,,,,,,,,,2023-04-12_11h41.11.461,bandit task,2022.2.5,60.03006306086641,
98,0,98,0,,,,,,,,,,,,,,,,,70.60015929999645,70.60015929999645,70.60015929999645,70.60015929999645,70.60015929999645,w,0.1071160999708809,70.73094929999206,70.73094929999206,71.13313090000884,71.13313090000884,,,,,,,,,,,,,,,,,,,,,,,,,,,,,,,,,,,,,,,,,,2023-04-12_11h41.11.461,bandit task,2022.2.5,60.03006306086641,
99,0,99,0,0,0,0,0,,,,,,,,,,,,,71.13313090000884,71.13313090000884,71.13313090000884,71.13313090000884,71.13313090000884,w,0.0499522999743931,71.19918490000418,71.19918490000418,,,71.62246310000774,71.62246310000774,space,6.212579600018216,,,,,,,,,,,,,,,,,,,,,,,,,,,,,,,,,,,,,,2023-04-12_11h41.11.461,bandit task,2022.2.5,60.03006306086641,
99,0,99,0,,,,,,,,,,,,,,,,,,,,,,,,,,,,,,,,,,,,,,,,,,,,,,,,,,,,,,,,,,,,,,,,,,,,,2023-04-12_11h41.11.461,bandit task,2022.2.5,60.03006306086641,
100,0,100,0,,,,,,,,,,,,,,,,,77.8626946999866,77.8626946999866,77.8626946999866,77.8626946999866,77.8626946999866,w,0.3912848999898415,78.27706930000568,78.27706930000568,78.6789407999895,78.6789407999895,,,,,,,,,,,,,,,,,,,,,,,,,,,,,,,,,,,,,,,,,,2023-04-12_11h41.11.461,bandit task,2022.2.5,60.03006306086641,
101,0,101,0,,,,,,,,,,,,,,,,,78.6789407999895,78.6789407999895,78.6789407999895,78.6789407999895,78.6789407999895,w,0.9556445000052918,79.65980289998697,79.65980289998697,80.06166139998822,80.06166139998822,,,,,,,,,,,,,,,,,,,,,,,,,,,,,,,,,,,,,,,,,,2023-04-12_11h41.11.461,bandit task,2022.2.5,60.03006306086641,
102,0,102,0,,,,,,,,,,,,,,,,,80.06166139998822,80.06166139998822,80.06166139998822,80.06166139998822,80.06166139998822,w,0.19290639998507686,80.276229399984,80.276229399984,80.67821519999416,80.67821519999416,,,,,,,,,,,,,,,,,,,,,,,,,,,,,,,,,,,,,,,,,,2023-04-12_11h41.11.461,bandit task,2022.2.5,60.03006306086641,
103,0,103,0,,,,,,,,,,,,,,,,,80.67821519999416,80.67821519999416,80.67821519999416,80.67821519999416,80.67821519999416,w,0.18247890000930056,80.87574659998063,80.87574659998063,81.27767710000626,81.27767710000626,,,,,,,,,,,,,,,,,,,,,,,,,,,,,,,,,,,,,,,,,,2023-04-12_11h41.11.461,bandit task,2022.2.5,60.03006306086641,
104,0,104,0,,,,,,,,,,,,,,,,,81.27767710000626,81.27767710000626,81.27767710000626,81.27767710000626,81.27767710000626,w,0.1853287999983877,81.49216920000617,81.49216920000617,81.8940150999988,81.8940150999988,,,,,,,,,,,,,,,,,,,,,,,,,,,,,,,,,,,,,,,,,,2023-04-12_11h41.11.461,bandit task,2022.2.5,60.03006306086641,
105,0,105,0,,,,,,,,,,,,,,,,,81.8940150999988,81.8940150999988,81.8940150999988,81.8940150999988,81.8940150999988,w,0.2510388999944553,82.18415680000908,82.18415680000908,,,,,,,,,,,,,,,,,,,,,,,,,,,,,,,,,,,,,,,,,,,,2023-04-12_11h41.11.461,bandit task,2022.2.5,60.03006306086641,
106,0,106,0,,,,,,,,,,,,,,,,,82.59376339998562,82.59376339998562,82.59376339998562,82.59376339998562,82.59376339998562,w,0.08270259998971596,82.69156189999194,82.69156189999194,83.09341709999717,83.09341709999717,,,,,,,,,,,,,,,,,,,,,,,,,,,,,,,,,,,,,,,,,,2023-04-12_11h41.11.461,bandit task,2022.2.5,60.03006306086641,
107,0,107,0,,,,,,,,,,,,,,,,,83.09341709999717,83.09341709999717,83.09341709999717,83.09341709999717,83.09341709999717,w,0.07620209999731742,83.19129759998759,83.19129759998759,83.59339059999911,83.59339059999911,,,,,,,,,,,,,,,,,,,,,,,,,,,,,,,,,,,,,,,,,,2023-04-12_11h41.11.461,bandit task,2022.2.5,60.03006306086641,
108,0,108,0,,,,,,,,,,,,,,,,,83.59339059999911,83.59339059999911,83.59339059999911,83.59339059999911,83.59339059999911,w,0.057925500004785135,83.68003379998845,83.68003379998845,,,,,,,,,,,,,,,,,,,,,,,,,,,,,,,,,,,,,,,,,,,,2023-04-12_11h41.11.461,bandit task,2022.2.5,60.03006306086641,
109,0,109,0,,,,,,,,,,,,,,,,,84.0929363000032,84.0929363000032,84.0929363000032,84.0929363000032,84.0929363000032,w,0.03483150000101887,84.15749640000286,84.15749640000286,84.55963810000685,84.55963810000685,,,,,,,,,,,,,,,,,,,,,,,,,,,,,,,,,,,,,,,,,,2023-04-12_11h41.11.461,bandit task,2022.2.5,60.03006306086641,
110,0,110,0,,,,,,,,,,,,,,,,,84.55963810000685,84.55963810000685,84.55963810000685,84.55963810000685,84.55963810000685,w,0.055752000014763325,84.64199229999213,84.64199229999213,,,,,,,,,,,,,,,,,,,,,,,,,,,,,,,,,,,,,,,,,,,,2023-04-12_11h41.11.461,bandit task,2022.2.5,60.03006306086641,
111,0,111,0,,,,,,,,,,,,,,,,,85.0592151999881,85.0592151999881,85.0592151999881,85.0592151999881,85.0592151999881,w,0.044371900003170595,85.12359060000745,85.12359060000745,85.52553600000101,85.52553600000101,,,,,,,,,,,,,,,,,,,,,,,,,,,,,,,,,,,,,,,,,,2023-04-12_11h41.11.461,bandit task,2022.2.5,60.03006306086641,
112,0,112,0,,,,,,,,,,,,,,,,,85.52553600000101,85.52553600000101,85.52553600000101,85.52553600000101,85.52553600000101,w,0.0871288999915123,85.6399218000006,85.6399218000006,86.0418926999846,86.0418926999846,,,,,,,,,,,,,,,,,,,,,,,,,,,,,,,,,,,,,,,,,,2023-04-12_11h41.11.461,bandit task,2022.2.5,60.03006306086641,
113,0,113,0,,,,,,,,,,,,,,,,,86.0418926999846,86.0418926999846,86.0418926999846,86.0418926999846,86.0418926999846,w,0.0543928999977652,86.1230843999947,86.1230843999947,86.52515870000934,86.52515870000934,,,,,,,,,,,,,,,,,,,,,,,,,,,,,,,,,,,,,,,,,,2023-04-12_11h41.11.461,bandit task,2022.2.5,60.03006306086641,
114,0,114,0,,,,,,,,,,,,,,,,,86.52515870000934,86.52515870000934,86.52515870000934,86.52515870000934,86.52515870000934,w,0.09054559998912737,86.6413295000093,86.6413295000093,,,,,,,,,,,,,,,,,,,,,,,,,,,,,,,,,,,,,,,,,,,,2023-04-12_11h41.11.461,bandit task,2022.2.5,60.03006306086641,
115,0,115,0,,,,,,,,,,,,,,,,,87.05809139998746,87.05809139998746,87.05809139998746,87.05809139998746,87.05809139998746,w,0.020461800013436005,87.1059566999902,87.1059566999902,87.50787879998097,87.50787879998097,,,,,,,,,,,,,,,,,,,,,,,,,,,,,,,,,,,,,,,,,,2023-04-12_11h41.11.461,bandit task,2022.2.5,60.03006306086641,
116,0,116,0,,,,,,,,,,,,,,,,,87.50787879998097,87.50787879998097,87.50787879998097,87.50787879998097,87.50787879998097,w,0.04781540000112727,87.57248309999704,87.57248309999704,87.97441749999416,87.97441749999416,,,,,,,,,,,,,,,,,,,,,,,,,,,,,,,,,,,,,,,,,,2023-04-12_11h41.11.461,bandit task,2022.2.5,60.03006306086641,
117,0,117,0,,,,,,,,,,,,,,,,,87.97441749999416,87.97441749999416,87.97441749999416,87.97441749999416,87.97441749999416,w,0.056866099999751896,88.05547980000847,88.05547980000847,88.45748559999629,88.45748559999629,,,,,,,,,,,,,,,,,,,,,,,,,,,,,,,,,,,,,,,,,,2023-04-12_11h41.11.461,bandit task,2022.2.5,60.03006306086641,
118,0,118,0,,,,,,,,,,,,,,,,,88.45748559999629,88.45748559999629,88.45748559999629,88.45748559999629,88.45748559999629,w,0.06972580001456663,88.55531769999652,88.55531769999652,88.95750250000856,88.95750250000856,,,,,,,,,,,,,,,,,,,,,,,,,,,,,,,,,,,,,,,,,,2023-04-12_11h41.11.461,bandit task,2022.2.5,60.03006306086641,
119,0,119,0,,,,,,,,,,,,,,,,,88.95750250000856,88.95750250000856,88.95750250000856,88.95750250000856,88.95750250000856,w,0.12472149997483939,89.10494349998771,89.10494349998771,89.50717279998935,89.50717279998935,,,,,,,,,,,,,,,,,,,,,,,,,,,,,,,,,,,,,,,,,,2023-04-12_11h41.11.461,bandit task,2022.2.5,60.03006306086641,
120,0,120,0,,,,,,,,,,,,,,,,,89.50717279998935,89.50717279998935,89.50717279998935,89.50717279998935,89.50717279998935,w,0.048664000001735985,89.57129789999453,89.57129789999453,89.97321259998716,89.97321259998716,,,,,,,,,,,,,,,,,,,,,,,,,,,,,,,,,,,,,,,,,,2023-04-12_11h41.11.461,bandit task,2022.2.5,60.03006306086641,
121,0,121,0,,,,,,,,,,,,,,,,,89.97321259998716,89.97321259998716,89.97321259998716,89.97321259998716,89.97321259998716,w,0.07898310001473874,90.07106640000711,90.07106640000711,90.4730520999874,90.4730520999874,,,,,,,,,,,,,,,,,,,,,,,,,,,,,,,,,,,,,,,,,,2023-04-12_11h41.11.461,bandit task,2022.2.5,60.03006306086641,
122,0,122,0,,,,,,,,,,,,,,,,,90.4730520999874,90.4730520999874,90.4730520999874,90.4730520999874,90.4730520999874,w,0.08749279999756254,90.58804669999518,90.58804669999518,90.98940719998791,90.98940719998791,,,,,,,,,,,,,,,,,,,,,,,,,,,,,,,,,,,,,,,,,,2023-04-12_11h41.11.461,bandit task,2022.2.5,60.03006306086641,
123,0,123,0,,,,,,,,,,,,,,,,,90.98940719998791,90.98940719998791,90.98940719998791,90.98940719998791,90.98940719998791,w,0.07703449999098666,91.0937054999813,91.0937054999813,,,,,,,,,,,,,,,,,,,,,,,,,,,,,,,,,,,,,,,,,,,,2023-04-12_11h41.11.461,bandit task,2022.2.5,60.03006306086641,
124,0,124,0,,,,,,,,,,,,,,,,,91.5057237999863,91.5057237999863,91.5057237999863,91.5057237999863,91.5057237999863,w,0.07252149999840185,91.60367609999957,91.60367609999957,92.00548870000057,92.00548870000057,,,,,,,,,,,,,,,,,,,,,,,,,,,,,,,,,,,,,,,,,,2023-04-12_11h41.11.461,bandit task,2022.2.5,60.03006306086641,
125,0,125,0,,,,,,,,,,,,,,,,,92.00548870000057,92.00548870000057,92.00548870000057,92.00548870000057,92.00548870000057,w,0.12594080000417307,92.15336480000406,92.15336480000406,92.55536579998443,92.55536579998443,,,,,,,,,,,,,,,,,,,,,,,,,,,,,,,,,,,,,,,,,,2023-04-12_11h41.11.461,bandit task,2022.2.5,60.03006306086641,
126,0,126,0,,,,,,,,,,,,,,,,,92.55536579998443,92.55536579998443,92.55536579998443,92.55536579998443,92.55536579998443,w,0.021313300007022917,92.60323459998472,92.60323459998472,93.00506269998732,93.00506269998732,,,,,,,,,,,,,,,,,,,,,,,,,,,,,,,,,,,,,,,,,,2023-04-12_11h41.11.461,bandit task,2022.2.5,60.03006306086641,
127,0,127,0,,,,,,,,,,,,,,,,,93.00506269998732,93.00506269998732,93.00506269998732,93.00506269998732,93.00506269998732,w,0.05462710000574589,93.0862031999859,93.0862031999859,93.48827959998744,93.48827959998744,,,,,,,,,,,,,,,,,,,,,,,,,,,,,,,,,,,,,,,,,,2023-04-12_11h41.11.461,bandit task,2022.2.5,60.03006306086641,
128,0,128,0,,,,,,,,,,,,,,,,,93.48827959998744,93.48827959998744,93.48827959998744,93.48827959998744,93.48827959998744,w,0.07507459999760613,93.58824399998412,93.58824399998412,,,,,,,,,,,,,,,,,,,,,,,,,,,,,,,,,,,,,,,,,,,,2023-04-12_11h41.11.461,bandit task,2022.2.5,60.03006306086641,
129,0,129,0,,,,,,,,,,,,,,,,,94.00443649999215,94.00443649999215,94.00443649999215,94.00443649999215,94.00443649999215,w,0.2947903000167571,94.3190454999858,94.3190454999858,94.72094820000348,94.72094820000348,,,,,,,,,,,,,,,,,,,,,,,,,,,,,,,,,,,,,,,,,,2023-04-12_11h41.11.461,bandit task,2022.2.5,60.03006306086641,
130,0,130,0,,,,,,,,,,,,,,,,,94.72094820000348,94.72094820000348,94.72094820000348,94.72094820000348,94.72094820000348,w,0.09896519998437725,94.8354027000023,94.8354027000023,95.23722680000355,95.23722680000355,,,,,,,,,,,,,,,,,,,,,,,,,,,,,,,,,,,,,,,,,,2023-04-12_11h41.11.461,bandit task,2022.2.5,60.03006306086641,
131,0,131,0,,,,,,,,,,,,,,,,,95.23722680000355,95.23722680000355,95.23722680000355,95.23722680000355,95.23722680000355,w,0.049111399974208325,95.30177489999915,95.30177489999915,95.70362359998398,95.70362359998398,,,,,,,,,,,,,,,,,,,,,,,,,,,,,,,,,,,,,,,,,,2023-04-12_11h41.11.461,bandit task,2022.2.5,60.03006306086641,
132,0,132,0,,,,,,,,,,,,,,,,,95.70362359998398,95.70362359998398,95.70362359998398,95.70362359998398,95.70362359998398,w,0.11421030000201426,95.83629889998701,95.83629889998701,,,,,,,,,,,,,,,,,,,,,,,,,,,,,,,,,,,,,,,,,,,,2023-04-12_11h41.11.461,bandit task,2022.2.5,60.03006306086641,
133,0,133,0,,,,,,,,,,,,,,,,,96.25341420000768,96.25341420000768,96.25341420000768,96.25341420000768,96.25341420000768,w,0.07770240001264028,96.35136159998365,96.35136159998365,96.75310559998616,96.75310559998616,,,,,,,,,,,,,,,,,,,,,,,,,,,,,,,,,,,,,,,,,,2023-04-12_11h41.11.461,bandit task,2022.2.5,60.03006306086641,
134,0,134,0,,,,,,,,,,,,,,,,,96.75310559998616,96.75310559998616,96.75310559998616,96.75310559998616,96.75310559998616,w,0.06981430001906119,96.85093709998182,96.85093709998182,97.25281269999687,97.25281269999687,,,,,,,,,,,,,,,,,,,,,,,,,,,,,,,,,,,,,,,,,,2023-04-12_11h41.11.461,bandit task,2022.2.5,60.03006306086641,
135,0,135,0,,,,,,,,,,,,,,,,,97.25281269999687,97.25281269999687,97.25281269999687,97.25281269999687,97.25281269999687,w,0.044724599982146174,97.32362139999168,97.32362139999168,,,,,,,,,,,,,,,,,,,,,,,,,,,,,,,,,,,,,,,,,,,,2023-04-12_11h41.11.461,bandit task,2022.2.5,60.03006306086641,
136,0,136,0,,,,,,,,,,,,,,,,,97.73581849999027,97.73581849999027,97.73581849999027,97.73581849999027,97.73581849999027,w,0.06427049997728318,97.8173589000071,97.8173589000071,98.21904009999707,98.21904009999707,,,,,,,,,,,,,,,,,,,,,,,,,,,,,,,,,,,,,,,,,,2023-04-12_11h41.11.461,bandit task,2022.2.5,60.03006306086641,
137,0,137,0,,,,,,,,,,,,,,,,,98.21904009999707,98.21904009999707,98.21904009999707,98.21904009999707,98.21904009999707,w,0.03465489999507554,98.28356069998699,98.28356069998699,98.68534999998519,98.68534999998519,,,,,,,,,,,,,,,,,,,,,,,,,,,,,,,,,,,,,,,,,,2023-04-12_11h41.11.461,bandit task,2022.2.5,60.03006306086641,
138,0,138,0,,,,,,,,,,,,,,,,,98.68534999998519,98.68534999998519,98.68534999998519,98.68534999998519,98.68534999998519,w,0.15463069998077117,98.86651799999527,98.86651799999527,99.26862679998158,99.26862679998158,,,,,,,,,,,,,,,,,,,,,,,,,,,,,,,,,,,,,,,,,,2023-04-12_11h41.11.461,bandit task,2022.2.5,60.03006306086641,
139,0,139,0,,,,,,,,,,,,,,,,,99.26862679998158,99.26862679998158,99.26862679998158,99.26862679998158,99.26862679998158,w,0.11508950000279583,99.39955279999413,99.39955279999413,99.80179239998688,99.80179239998688,,,,,,,,,,,,,,,,,,,,,,,,,,,,,,,,,,,,,,,,,,2023-04-12_11h41.11.461,bandit task,2022.2.5,60.03006306086641,
140,0,140,0,,,,,,,,,,,,,,,,,99.80179239998688,99.80179239998688,99.80179239998688,99.80179239998688,99.80179239998688,w,0.11382729999604635,99.93297860000166,99.93297860000166,100.33483010000782,100.33483010000782,,,,,,,,,,,,,,,,,,,,,,,,,,,,,,,,,,,,,,,,,,2023-04-12_11h41.11.461,bandit task,2022.2.5,60.03006306086641,
141,0,141,0,,,,,,,,,,,,,,,,,100.33483010000782,100.33483010000782,100.33483010000782,100.33483010000782,100.33483010000782,w,0.08988020001561381,100.44913900000392,100.44913900000392,100.8514835999813,100.8514835999813,,,,,,,,,,,,,,,,,,,,,,,,,,,,,,,,,,,,,,,,,,2023-04-12_11h41.11.461,bandit task,2022.2.5,60.03006306086641,
142,0,142,0,,,,,,,,,,,,,,,,,100.8514835999813,100.8514835999813,100.8514835999813,100.8514835999813,100.8514835999813,w,0.08320090000052005,100.96554400000605,100.96554400000605,101.3680275999941,101.3680275999941,,,,,,,,,,,,,,,,,,,,,,,,,,,,,,,,,,,,,,,,,,2023-04-12_11h41.11.461,bandit task,2022.2.5,60.03006306086641,
143,0,143,0,,,,,,,,,,,,,,,,,101.3680275999941,101.3680275999941,101.3680275999941,101.3680275999941,101.3680275999941,w,0.07222709999768995,101.46524719998706,101.46524719998706,101.86745920000249,101.86745920000249,,,,,,,,,,,,,,,,,,,,,,,,,,,,,,,,,,,,,,,,,,2023-04-12_11h41.11.461,bandit task,2022.2.5,60.03006306086641,
144,0,144,0,,,,,,,,,,,,,,,,,101.86745920000249,101.86745920000249,101.86745920000249,101.86745920000249,101.86745920000249,w,0.2310101000184659,102.11667240000679,102.11667240000679,,,,,,,,,,,,,,,,,,,,,,,,,,,,,,,,,,,,,,,,,,,,2023-04-12_11h41.11.461,bandit task,2022.2.5,60.03006306086641,
145,0,145,0,,,,,,,,,,,,,,,,,102.53374029998668,102.53374029998668,102.53374029998668,102.53374029998668,102.53374029998668,w,0.010560399998212233,102.56466689999797,102.56466689999797,102.96684899998945,102.96684899998945,,,,,,,,,,,,,,,,,,,,,,,,,,,,,,,,,,,,,,,,,,2023-04-12_11h41.11.461,bandit task,2022.2.5,60.03006306086641,
146,0,146,0,,,,,,,,,,,,,,,,,102.96684899998945,102.96684899998945,102.96684899998945,102.96684899998945,102.96684899998945,w,0.029891599988332018,103.01995459999307,103.01995459999307,,,,,,,,,,,,,,,,,,,,,,,,,,,,,,,,,,,,,,,,,,,,2023-04-12_11h41.11.461,bandit task,2022.2.5,60.03006306086641,
147,0,147,0,,,,,,,,,,,,,,,,,103.43311029998586,103.43311029998586,103.43311029998586,103.43311029998586,103.43311029998586,w,0.14739689999260008,103.59759649998159,103.59759649998159,103.99948739999672,103.99948739999672,,,,,,,,,,,,,,,,,,,,,,,,,,,,,,,,,,,,,,,,,,2023-04-12_11h41.11.461,bandit task,2022.2.5,60.03006306086641,
148,0,148,0,,,,,,,,,,,,,,,,,103.99948739999672,103.99948739999672,103.99948739999672,103.99948739999672,103.99948739999672,w,0.07045590001507662,104.09720079999533,104.09720079999533,104.49934629999916,104.49934629999916,,,,,,,,,,,,,,,,,,,,,,,,,,,,,,,,,,,,,,,,,,2023-04-12_11h41.11.461,bandit task,2022.2.5,60.03006306086641,
149,0,149,0,,,,,,,,,,,,,,,,,104.49934629999916,104.49934629999916,104.49934629999916,104.49934629999916,104.49934629999916,w,0.22719779997714795,104.74689249999938,104.74689249999938,105.14878319998388,105.14878319998388,,,,,,,,,,,,,,,,,,,,,,,,,,,,,,,,,,,,,,,,,,2023-04-12_11h41.11.461,bandit task,2022.2.5,60.03006306086641,
150,0,150,0,,,,,,,,,,,,,,,,,105.14878319998388,105.14878319998388,105.14878319998388,105.14878319998388,105.14878319998388,w,1.3844819999940228,106.56273239999427,106.56273239999427,106.96466490000603,106.96466490000603,,,,,,,,,,,,,,,,,,,,,,,,,,,,,,,,,,,,,,,,,,2023-04-12_11h41.11.461,bandit task,2022.2.5,60.03006306086641,
151,0,151,0,,,,,,,,,,,,,,,,,106.96466490000603,106.96466490000603,106.96466490000603,106.96466490000603,106.96466490000603,w,0.07854300001054071,107.06248659998528,107.06248659998528,107.46443299998646,107.46443299998646,,,,,,,,,,,,,,,,,,,,,,,,,,,,,,,,,,,,,,,,,,2023-04-12_11h41.11.461,bandit task,2022.2.5,60.03006306086641,
152,0,152,0,,,,,,,,,,,,,,,,,107.46443299998646,107.46443299998646,107.46443299998646,107.46443299998646,107.46443299998646,w,0.07643319998169318,107.56215059998794,107.56215059998794,107.96407769998768,107.96407769998768,,,,,,,,,,,,,,,,,,,,,,,,,,,,,,,,,,,,,,,,,,2023-04-12_11h41.11.461,bandit task,2022.2.5,60.03006306086641,
153,0,153,0,,,,,,,,,,,,,,,,,107.96407769998768,107.96407769998768,107.96407769998768,107.96407769998768,107.96407769998768,w,0.04755170000134967,108.0285678000073,108.0285678000073,108.43046309999772,108.43046309999772,,,,,,,,,,,,,,,,,,,,,,,,,,,,,,,,,,,,,,,,,,2023-04-12_11h41.11.461,bandit task,2022.2.5,60.03006306086641,
154,0,154,0,,,,,,,,,,,,,,,,,108.43046309999772,108.43046309999772,108.43046309999772,108.43046309999772,108.43046309999772,w,0.05567260002135299,108.51168359999429,108.51168359999429,108.91376940000919,108.91376940000919,,,,,,,,,,,,,,,,,,,,,,,,,,,,,,,,,,,,,,,,,,2023-04-12_11h41.11.461,bandit task,2022.2.5,60.03006306086641,
155,0,155,0,,,,,,,,,,,,,,,,,108.91376940000919,108.91376940000919,108.91376940000919,108.91376940000919,108.91376940000919,w,0.1182029000192415,109.06141629998456,109.06141629998456,109.46335819998058,109.46335819998058,,,,,,,,,,,,,,,,,,,,,,,,,,,,,,,,,,,,,,,,,,2023-04-12_11h41.11.461,bandit task,2022.2.5,60.03006306086641,
156,0,156,0,,,,,,,,,,,,,,,,,109.46335819998058,109.46335819998058,109.46335819998058,109.46335819998058,109.46335819998058,w,0.26598190001095645,109.74431310000364,109.74431310000364,110.14632100000745,110.14632100000745,,,,,,,,,,,,,,,,,,,,,,,,,,,,,,,,,,,,,,,,,,2023-04-12_11h41.11.461,bandit task,2022.2.5,60.03006306086641,
157,0,157,0,,,,,,,,,,,,,,,,,110.14632100000745,110.14632100000745,110.14632100000745,110.14632100000745,110.14632100000745,w,0.02171579998685047,110.19419720000587,110.19419720000587,110.59631429999718,110.59631429999718,,,,,,,,,,,,,,,,,,,,,,,,,,,,,,,,,,,,,,,,,,2023-04-12_11h41.11.461,bandit task,2022.2.5,60.03006306086641,
158,0,158,0,,,,,,,,,,,,,,,,,110.59631429999718,110.59631429999718,110.59631429999718,110.59631429999718,110.59631429999718,w,0.025826099998084828,110.64421329999459,110.64421329999459,111.04644229999394,111.04644229999394,,,,,,,,,,,,,,,,,,,,,,,,,,,,,,,,,,,,,,,,,,2023-04-12_11h41.11.461,bandit task,2022.2.5,60.03006306086641,
159,0,159,0,,,,,,,,,,,,,,,,,111.04644229999394,111.04644229999394,111.04644229999394,111.04644229999394,111.04644229999394,w,0.023295899998629466,111.09353829998872,111.09353829998872,111.49555160000455,111.49555160000455,,,,,,,,,,,,,,,,,,,,,,,,,,,,,,,,,,,,,,,,,,2023-04-12_11h41.11.461,bandit task,2022.2.5,60.03006306086641,
160,0,160,0,,,,,,,,,,,,,,,,,111.49555160000455,111.49555160000455,111.49555160000455,111.49555160000455,111.49555160000455,w,0.07072829999378882,111.59354189998703,111.59354189998703,111.99536999998963,111.99536999998963,,,,,,,,,,,,,,,,,,,,,,,,,,,,,,,,,,,,,,,,,,2023-04-12_11h41.11.461,bandit task,2022.2.5,60.03006306086641,
161,0,161,0,,,,,,,,,,,,,,,,,111.99536999998963,111.99536999998963,111.99536999998963,111.99536999998963,111.99536999998963,w,0.06419619999360293,112.0764424999943,112.0764424999943,112.47840910000377,112.47840910000377,,,,,,,,,,,,,,,,,,,,,,,,,,,,,,,,,,,,,,,,,,2023-04-12_11h41.11.461,bandit task,2022.2.5,60.03006306086641,
162,0,162,0,,,,,,,,,,,,,,,,,112.47840910000377,112.47840910000377,112.47840910000377,112.47840910000377,112.47840910000377,w,0.0806284999998752,112.57638019998558,112.57638019998558,112.97814880000078,112.97814880000078,,,,,,,,,,,,,,,,,,,,,,,,,,,,,,,,,,,,,,,,,,2023-04-12_11h41.11.461,bandit task,2022.2.5,60.03006306086641,
163,0,163,0,,,,,,,,,,,,,,,,,112.97814880000078,112.97814880000078,112.97814880000078,112.97814880000078,112.97814880000078,w,0.10797250000177883,113.10942090000026,113.10942090000026,113.51143589999992,113.51143589999992,,,,,,,,,,,,,,,,,,,,,,,,,,,,,,,,,,,,,,,,,,2023-04-12_11h41.11.461,bandit task,2022.2.5,60.03006306086641,
164,0,164,0,,,,,,,,,,,,,,,,,113.51143589999992,113.51143589999992,113.51143589999992,113.51143589999992,113.51143589999992,w,0.0723922000033781,113.60929999998189,113.60929999998189,114.01104149999446,114.01104149999446,,,,,,,,,,,,,,,,,,,,,,,,,,,,,,,,,,,,,,,,,,2023-04-12_11h41.11.461,bandit task,2022.2.5,60.03006306086641,
165,0,165,0,,,,,,,,,,,,,,,,,114.01104149999446,114.01104149999446,114.01104149999446,114.01104149999446,114.01104149999446,w,0.07763800001703203,114.10881079998217,114.10881079998217,114.51068400000804,114.51068400000804,,,,,,,,,,,,,,,,,,,,,,,,,,,,,,,,,,,,,,,,,,2023-04-12_11h41.11.461,bandit task,2022.2.5,60.03006306086641,
166,0,166,0,,,,,,,,,,,,,,,,,114.51068400000804,114.51068400000804,114.51068400000804,114.51068400000804,114.51068400000804,w,0.13473019999219105,114.67517309999675,114.67517309999675,115.07697269998607,115.07697269998607,,,,,,,,,,,,,,,,,,,,,,,,,,,,,,,,,,,,,,,,,,2023-04-12_11h41.11.461,bandit task,2022.2.5,60.03006306086641,
167,0,167,0,,,,,,,,,,,,,,,,,115.07697269998607,115.07697269998607,115.07697269998607,115.07697269998607,115.07697269998607,w,0.1069429999915883,115.20820029999595,115.20820029999595,115.61023069999646,115.61023069999646,,,,,,,,,,,,,,,,,,,,,,,,,,,,,,,,,,,,,,,,,,2023-04-12_11h41.11.461,bandit task,2022.2.5,60.03006306086641,
168,0,168,0,,,,,,,,,,,,,,,,,115.61023069999646,115.61023069999646,115.61023069999646,115.61023069999646,115.61023069999646,w,0.11524799998733215,115.74128709998331,115.74128709998331,116.14324529998703,116.14324529998703,,,,,,,,,,,,,,,,,,,,,,,,,,,,,,,,,,,,,,,,,,2023-04-12_11h41.11.461,bandit task,2022.2.5,60.03006306086641,
169,0,169,0,,,,,,,,,,,,,,,,,116.14324529998703,116.14324529998703,116.14324529998703,116.14324529998703,116.14324529998703,w,0.09696229998371564,116.25970599998254,116.25970599998254,,,,,,,,,,,,,,,,,,,,,,,,,,,,,,,,,,,,,,,,,,,,2023-04-12_11h41.11.461,bandit task,2022.2.5,60.03006306086641,
170,0,170,0,,,,,,,,,,,,,,,,,116.67656910000369,116.67656910000369,116.67656910000369,116.67656910000369,116.67656910000369,w,0.026050000014947727,116.72410659998422,116.72410659998422,117.12613099999726,117.12613099999726,,,,,,,,,,,,,,,,,,,,,,,,,,,,,,,,,,,,,,,,,,2023-04-12_11h41.11.461,bandit task,2022.2.5,60.03006306086641,
171,0,171,0,,,,,,,,,,,,,,,,,117.12613099999726,117.12613099999726,117.12613099999726,117.12613099999726,117.12613099999726,w,0.09970050002448261,117.24055270000827,117.24055270000827,117.64258529999643,117.64258529999643,,,,,,,,,,,,,,,,,,,,,,,,,,,,,,,,,,,,,,,,,,2023-04-12_11h41.11.461,bandit task,2022.2.5,60.03006306086641,
172,0,172,0,,,,,,,,,,,,,,,,,117.64258529999643,117.64258529999643,117.64258529999643,117.64258529999643,117.64258529999643,w,0.0628695999912452,117.72362410000642,117.72362410000642,118.12564749998273,118.12564749998273,,,,,,,,,,,,,,,,,,,,,,,,,,,,,,,,,,,,,,,,,,2023-04-12_11h41.11.461,bandit task,2022.2.5,60.03006306086641,
173,0,173,0,,,,,,,,,,,,,,,,,118.12564749998273,118.12564749998273,118.12564749998273,118.12564749998273,118.12564749998273,w,0.058706399984657764,118.20664669998223,118.20664669998223,118.60857340000803,118.60857340000803,,,,,,,,,,,,,,,,,,,,,,,,,,,,,,,,,,,,,,,,,,2023-04-12_11h41.11.461,bandit task,2022.2.5,60.03006306086641,
174,0,174,0,,,,,,,,,,,,,,,,,118.60857340000803,118.60857340000803,118.60857340000803,118.60857340000803,118.60857340000803,w,0.07934919997933321,118.70644169999287,118.70644169999287,119.10842319999938,119.10842319999938,,,,,,,,,,,,,,,,,,,,,,,,,,,,,,,,,,,,,,,,,,2023-04-12_11h41.11.461,bandit task,2022.2.5,60.03006306086641,
175,0,175,0,,,,,,,,,,,,,,,,,119.10842319999938,119.10842319999938,119.10842319999938,119.10842319999938,119.10842319999938,w,0.055581499997060746,119.18953879998298,119.18953879998298,119.59147650000523,119.59147650000523,,,,,,,,,,,,,,,,,,,,,,,,,,,,,,,,,,,,,,,,,,2023-04-12_11h41.11.461,bandit task,2022.2.5,60.03006306086641,
176,0,176,0,,,,,,,,,,,,,,,,,119.59147650000523,119.59147650000523,119.59147650000523,119.59147650000523,119.59147650000523,w,0.05281519997515716,119.67285699999775,119.67285699999775,120.07447329998831,120.07447329998831,,,,,,,,,,,,,,,,,,,,,,,,,,,,,,,,,,,,,,,,,,2023-04-12_11h41.11.461,bandit task,2022.2.5,60.03006306086641,
177,0,177,0,,,,,,,,,,,,,,,,,120.07447329998831,120.07447329998831,120.07447329998831,120.07447329998831,120.07447329998831,w,0.08881220000330359,120.18895829998655,120.18895829998655,120.59108009998454,120.59108009998454,,,,,,,,,,,,,,,,,,,,,,,,,,,,,,,,,,,,,,,,,,2023-04-12_11h41.11.461,bandit task,2022.2.5,60.03006306086641,
178,0,178,0,,,,,,,,,,,,,,,,,120.59108009998454,120.59108009998454,120.59108009998454,120.59108009998454,120.59108009998454,w,0.05222389998380095,120.6721741000074,120.6721741000074,121.0739219999814,121.0739219999814,,,,,,,,,,,,,,,,,,,,,,,,,,,,,,,,,,,,,,,,,,2023-04-12_11h41.11.461,bandit task,2022.2.5,60.03006306086641,
179,0,179,0,,,,,,,,,,,,,,,,,121.0739219999814,121.0739219999814,121.0739219999814,121.0739219999814,121.0739219999814,w,0.03768020001007244,121.13846109999577,121.13846109999577,121.5403938999807,121.5403938999807,,,,,,,,,,,,,,,,,,,,,,,,,,,,,,,,,,,,,,,,,,2023-04-12_11h41.11.461,bandit task,2022.2.5,60.03006306086641,
180,0,180,0,,,,,,,,,,,,,,,,,121.5403938999807,121.5403938999807,121.5403938999807,121.5403938999807,121.5403938999807,w,0.11098299999139272,121.67183599999407,121.67183599999407,122.07359869999345,122.07359869999345,,,,,,,,,,,,,,,,,,,,,,,,,,,,,,,,,,,,,,,,,,2023-04-12_11h41.11.461,bandit task,2022.2.5,60.03006306086641,
181,0,181,0,,,,,,,,,,,,,,,,,122.07359869999345,122.07359869999345,122.07359869999345,122.07359869999345,122.07359869999345,w,0.11427849999745376,122.20471560000442,122.20471560000442,122.60660959998495,122.60660959998495,,,,,,,,,,,,,,,,,,,,,,,,,,,,,,,,,,,,,,,,,,2023-04-12_11h41.11.461,bandit task,2022.2.5,60.03006306086641,
182,0,182,0,,,,,,,,,,,,,,,,,122.60660959998495,122.60660959998495,122.60660959998495,122.60660959998495,122.60660959998495,w,0.024696200009202585,122.65468459998374,122.65468459998374,123.0560598000011,123.0560598000011,,,,,,,,,,,,,,,,,,,,,,,,,,,,,,,,,,,,,,,,,,2023-04-12_11h41.11.461,bandit task,2022.2.5,60.03006306086641,
183,0,183,0,,,,,,,,,,,,,,,,,123.0560598000011,123.0560598000011,123.0560598000011,123.0560598000011,123.0560598000011,w,0.058060400013346225,123.137599699985,123.137599699985,123.53952359998948,123.53952359998948,,,,,,,,,,,,,,,,,,,,,,,,,,,,,,,,,,,,,,,,,,2023-04-12_11h41.11.461,bandit task,2022.2.5,60.03006306086641,
184,0,184,0,,,,,,,,,,,,,,,,,123.53952359998948,123.53952359998948,123.53952359998948,123.53952359998948,123.53952359998948,w,0.027435500000137836,123.58728229999542,123.58728229999542,123.98930699998164,123.98930699998164,,,,,,,,,,,,,,,,,,,,,,,,,,,,,,,,,,,,,,,,,,2023-04-12_11h41.11.461,bandit task,2022.2.5,60.03006306086641,
185,0,185,0,,,,,,,,,,,,,,,,,123.98930699998164,123.98930699998164,123.98930699998164,123.98930699998164,123.98930699998164,w,0.04742149999947287,124.05373610000242,124.05373610000242,124.45566330000293,124.45566330000293,,,,,,,,,,,,,,,,,,,,,,,,,,,,,,,,,,,,,,,,,,2023-04-12_11h41.11.461,bandit task,2022.2.5,60.03006306086641,
186,0,186,0,,,,,,,,,,,,,,,,,124.45566330000293,124.45566330000293,124.45566330000293,124.45566330000293,124.45566330000293,w,0.08066710000275634,124.55339329998242,124.55339329998242,124.9554216999968,124.9554216999968,,,,,,,,,,,,,,,,,,,,,,,,,,,,,,,,,,,,,,,,,,2023-04-12_11h41.11.461,bandit task,2022.2.5,60.03006306086641,
187,0,187,0,,,,,,,,,,,,,,,,,124.9554216999968,124.9554216999968,124.9554216999968,124.9554216999968,124.9554216999968,w,0.12517899999511428,125.10311979998369,125.10311979998369,125.50518089998513,125.50518089998513,,,,,,,,,,,,,,,,,,,,,,,,,,,,,,,,,,,,,,,,,,2023-04-12_11h41.11.461,bandit task,2022.2.5,60.03006306086641,
188,0,188,0,,,,,,,,,,,,,,,,,125.50518089998513,125.50518089998513,125.50518089998513,125.50518089998513,125.50518089998513,w,0.0663866999966558,125.58623650000663,125.58623650000663,125.98837449998246,125.98837449998246,,,,,,,,,,,,,,,,,,,,,,,,,,,,,,,,,,,,,,,,,,2023-04-12_11h41.11.461,bandit task,2022.2.5,60.03006306086641,
189,0,189,0,,,,,,,,,,,,,,,,,125.98837449998246,125.98837449998246,125.98837449998246,125.98837449998246,125.98837449998246,w,0.05778689999715425,126.06936699998914,126.06936699998914,126.47135760000674,126.47135760000674,,,,,,,,,,,,,,,,,,,,,,,,,,,,,,,,,,,,,,,,,,2023-04-12_11h41.11.461,bandit task,2022.2.5,60.03006306086641,
190,0,190,0,,,,,,,,,,,,,,,,,126.47135760000674,126.47135760000674,126.47135760000674,126.47135760000674,126.47135760000674,w,0.0832689999951981,126.56903690000763,126.56903690000763,126.97097319999011,126.97097319999011,,,,,,,,,,,,,,,,,,,,,,,,,,,,,,,,,,,,,,,,,,2023-04-12_11h41.11.461,bandit task,2022.2.5,60.03006306086641,
191,0,191,0,,,,,,,,,,,,,,,,,126.97097319999011,126.97097319999011,126.97097319999011,126.97097319999011,126.97097319999011,w,0.06051019998267293,127.05219109999598,127.05219109999598,127.45409939999809,127.45409939999809,,,,,,,,,,,,,,,,,,,,,,,,,,,,,,,,,,,,,,,,,,2023-04-12_11h41.11.461,bandit task,2022.2.5,60.03006306086641,
192,0,192,0,,,,,,,,,,,,,,,,,127.45409939999809,127.45409939999809,127.45409939999809,127.45409939999809,127.45409939999809,w,0.13289279997115955,127.60191269998904,127.60191269998904,128.00386060000164,128.00386060000164,,,,,,,,,,,,,,,,,,,,,,,,,,,,,,,,,,,,,,,,,,2023-04-12_11h41.11.461,bandit task,2022.2.5,60.03006306086641,
193,0,193,0,,,,,,,,,,,,,,,,,128.00386060000164,128.00386060000164,128.00386060000164,128.00386060000164,128.00386060000164,w,0.033120600011898205,128.05158959998516,128.05158959998516,128.4535130999866,128.4535130999866,,,,,,,,,,,,,,,,,,,,,,,,,,,,,,,,,,,,,,,,,,2023-04-12_11h41.11.461,bandit task,2022.2.5,60.03006306086641,
194,0,194,0,,,,,,,,,,,,,,,,,128.4535130999866,128.4535130999866,128.4535130999866,128.4535130999866,128.4535130999866,w,0.10129120000055991,128.58467559999553,128.58467559999553,128.98659439999028,128.98659439999028,,,,,,,,,,,,,,,,,,,,,,,,,,,,,,,,,,,,,,,,,,2023-04-12_11h41.11.461,bandit task,2022.2.5,60.03006306086641,
195,0,195,0,,,,,,,,,,,,,,,,,128.98659439999028,128.98659439999028,128.98659439999028,128.98659439999028,128.98659439999028,w,0.09143800000310875,129.10534730000654,129.10534730000654,,,,,,,,,,,,,,,,,,,,,,,,,,,,,,,,,,,,,,,,,,,,2023-04-12_11h41.11.461,bandit task,2022.2.5,60.03006306086641,
196,0,196,0,,,,,,,,,,,,,,,,,129.51984890000313,129.51984890000313,129.51984890000313,129.51984890000313,129.51984890000313,w,0.030633199989097193,129.5742223999987,129.5742223999987,,,,,,,,,,,,,,,,,,,,,,,,,,,,,,,,,,,,,,,,,,,,2023-04-12_11h41.11.461,bandit task,2022.2.5,60.03006306086641,
197,0,197,0,,,,,,,,,,,,,,,,,129.98616989998845,129.98616989998845,129.98616989998845,129.98616989998845,129.98616989998845,w,0.06902879997505806,130.08399079999072,130.08399079999072,130.48576449998654,130.48576449998654,,,,,,,,,,,,,,,,,,,,,,,,,,,,,,,,,,,,,,,,,,2023-04-12_11h41.11.461,bandit task,2022.2.5,60.03006306086641,
198,0,198,0,,,,,,,,,,,,,,,,,130.48576449998654,130.48576449998654,130.48576449998654,130.48576449998654,130.48576449998654,w,0.0608924999833107,130.56709249998676,130.56709249998676,130.9691116999893,130.9691116999893,,,,,,,,,,,,,,,,,,,,,,,,,,,,,,,,,,,,,,,,,,2023-04-12_11h41.11.461,bandit task,2022.2.5,60.03006306086641,
199,0,199,0,0,0,0,0,,,,,,,,,,,,,130.9691116999893,130.9691116999893,130.9691116999893,130.9691116999893,130.9691116999893,q,0.24398960001417436,131.23333349998575,131.23333349998575,131.63320219999878,131.63320219999878,131.63320219999878,131.63320219999878,space,5.589126499980921,,,,,,,,,,,,,,,,,,,,,,,,,,,,,,,,,,,,,,2023-04-12_11h41.11.461,bandit task,2022.2.5,60.03006306086641,
199,0,199,0,,,,,,,,,,,,,,,,,,,,,,,,,,,,,,,,,,,,,,,,,,,,,,,,,,,,,,,,,,,,,,,,,,,,,2023-04-12_11h41.11.461,bandit task,2022.2.5,60.03006306086641,
200,0,200,0,,,,,,,,,,,,,,,,,137.24911069998052,137.24911069998052,137.24911069998052,137.24911069998052,137.24911069998052,w,0.36377519997768104,137.63009849999798,137.63009849999798,138.03195720000076,138.03195720000076,,,,,,,,,,,,,,,,,,,,,,,,,,,,,,,,,,,,,,,,,,2023-04-12_11h41.11.461,bandit task,2022.2.5,60.03006306086641,
201,0,201,0,,,,,,,,,,,,,,,,,138.03195720000076,138.03195720000076,138.03195720000076,138.03195720000076,138.03195720000076,w,0.048786799976369366,138.0965406000032,138.0965406000032,138.49840489999042,138.49840489999042,,,,,,,,,,,,,,,,,,,,,,,,,,,,,,,,,,,,,,,,,,2023-04-12_11h41.11.461,bandit task,2022.2.5,60.03006306086641,
202,0,202,0,,,,,,,,,,,,,,,,,138.49840489999042,138.49840489999042,138.49840489999042,138.49840489999042,138.49840489999042,w,0.0223233999859076,138.54615049998392,138.54615049998392,138.94835789999343,138.94835789999343,,,,,,,,,,,,,,,,,,,,,,,,,,,,,,,,,,,,,,,,,,2023-04-12_11h41.11.461,bandit task,2022.2.5,60.03006306086641,
203,0,203,0,,,,,,,,,,,,,,,,,138.94835789999343,138.94835789999343,138.94835789999343,138.94835789999343,138.94835789999343,w,0.057808399986242875,139.0294590999838,139.0294590999838,139.4313637999876,139.4313637999876,,,,,,,,,,,,,,,,,,,,,,,,,,,,,,,,,,,,,,,,,,2023-04-12_11h41.11.461,bandit task,2022.2.5,60.03006306086641,
204,0,204,0,,,,,,,,,,,,,,,,,139.4313637999876,139.4313637999876,139.4313637999876,139.4313637999876,139.4313637999876,w,0.06235680001555011,139.51240700000199,139.51240700000199,139.91422770000645,139.91422770000645,,,,,,,,,,,,,,,,,,,,,,,,,,,,,,,,,,,,,,,,,,2023-04-12_11h41.11.461,bandit task,2022.2.5,60.03006306086641,
205,0,205,0,,,,,,,,,,,,,,,,,139.91422770000645,139.91422770000645,139.91422770000645,139.91422770000645,139.91422770000645,w,0.06417699999292381,139.99577229999704,139.99577229999704,140.3974229999876,140.3974229999876,,,,,,,,,,,,,,,,,,,,,,,,,,,,,,,,,,,,,,,,,,2023-04-12_11h41.11.461,bandit task,2022.2.5,60.03006306086641,
206,0,206,0,,,,,,,,,,,,,,,,,140.3974229999876,140.3974229999876,140.3974229999876,140.3974229999876,140.3974229999876,w,0.08119620001525618,140.4953242999909,140.4953242999909,140.89769059998798,140.89769059998798,,,,,,,,,,,,,,,,,,,,,,,,,,,,,,,,,,,,,,,,,,2023-04-12_11h41.11.461,bandit task,2022.2.5,60.03006306086641,
207,0,207,0,,,,,,,,,,,,,,,,,140.89769059998798,140.89769059998798,140.89769059998798,140.89769059998798,140.89769059998798,w,0.06209939997643232,140.97845009999583,140.97845009999583,141.38044469998567,141.38044469998567,,,,,,,,,,,,,,,,,,,,,,,,,,,,,,,,,,,,,,,,,,2023-04-12_11h41.11.461,bandit task,2022.2.5,60.03006306086641,
208,0,208,0,,,,,,,,,,,,,,,,,141.38044469998567,141.38044469998567,141.38044469998567,141.38044469998567,141.38044469998567,w,0.0682342000072822,141.4821646999917,141.4821646999917,,,,,,,,,,,,,,,,,,,,,,,,,,,,,,,,,,,,,,,,,,,,2023-04-12_11h41.11.461,bandit task,2022.2.5,60.03006306086641,
209,0,209,0,,,,,,,,,,,,,,,,,141.8968448000087,141.8968448000087,141.8968448000087,141.8968448000087,141.8968448000087,w,0.0746618999983184,141.99453299999004,141.99453299999004,142.39634370000567,142.39634370000567,,,,,,,,,,,,,,,,,,,,,,,,,,,,,,,,,,,,,,,,,,2023-04-12_11h41.11.461,bandit task,2022.2.5,60.03006306086641,
210,0,210,0,,,,,,,,,,,,,,,,,142.39634370000567,142.39634370000567,142.39634370000567,142.39634370000567,142.39634370000567,w,0.05904299998655915,142.4775032000034,142.4775032000034,142.87941039999714,142.87941039999714,,,,,,,,,,,,,,,,,,,,,,,,,,,,,,,,,,,,,,,,,,2023-04-12_11h41.11.461,bandit task,2022.2.5,60.03006306086641,
211,0,211,0,,,,,,,,,,,,,,,,,142.87941039999714,142.87941039999714,142.87941039999714,142.87941039999714,142.87941039999714,w,0.039258599979802966,142.94404259999283,142.94404259999283,143.34601010000915,143.34601010000915,,,,,,,,,,,,,,,,,,,,,,,,,,,,,,,,,,,,,,,,,,2023-04-12_11h41.11.461,bandit task,2022.2.5,60.03006306086641,
212,0,212,0,,,,,,,,,,,,,,,,,143.34601010000915,143.34601010000915,143.34601010000915,143.34601010000915,143.34601010000915,w,0.05560309998691082,143.42912489999435,143.42912489999435,,,,,,,,,,,,,,,,,,,,,,,,,,,,,,,,,,,,,,,,,,,,2023-04-12_11h41.11.461,bandit task,2022.2.5,60.03006306086641,
213,0,213,0,,,,,,,,,,,,,,,,,143.84563440000056,143.84563440000056,143.84563440000056,143.84563440000056,143.84563440000056,w,0.024982100003398955,143.893516799988,143.893516799988,144.2956364999991,144.2956364999991,,,,,,,,,,,,,,,,,,,,,,,,,,,,,,,,,,,,,,,,,,2023-04-12_11h41.11.461,bandit task,2022.2.5,60.03006306086641,
214,0,214,0,,,,,,,,,,,,,,,,,144.2956364999991,144.2956364999991,144.2956364999991,144.2956364999991,144.2956364999991,w,0.030737699999008328,144.34468280000146,144.34468280000146,,,,,,,,,,,,,,,,,,,,,,,,,,,,,,,,,,,,,,,,,,,,2023-04-12_11h41.11.461,bandit task,2022.2.5,60.03006306086641,
215,0,215,0,,,,,,,,,,,,,,,,,144.76168339999276,144.76168339999276,144.76168339999276,144.76168339999276,144.76168339999276,w,0.06416139999055304,144.84311079999316,144.84311079999316,145.24501179999788,145.24501179999788,,,,,,,,,,,,,,,,,,,,,,,,,,,,,,,,,,,,,,,,,,2023-04-12_11h41.11.461,bandit task,2022.2.5,60.03006306086641,
216,0,216,0,,,,,,,,,,,,,,,,,145.24501179999788,145.24501179999788,145.24501179999788,145.24501179999788,145.24501179999788,w,0.08979960001306608,145.35944549998385,145.35944549998385,145.7614527999831,145.7614527999831,,,,,,,,,,,,,,,,,,,,,,,,,,,,,,,,,,,,,,,,,,2023-04-12_11h41.11.461,bandit task,2022.2.5,60.03006306086641,
217,0,217,0,,,,,,,,,,,,,,,,,145.7614527999831,145.7614527999831,145.7614527999831,145.7614527999831,145.7614527999831,w,0.10368459997698665,145.89256680000108,145.89256680000108,146.2944571999833,146.2944571999833,,,,,,,,,,,,,,,,,,,,,,,,,,,,,,,,,,,,,,,,,,2023-04-12_11h41.11.461,bandit task,2022.2.5,60.03006306086641,
218,0,218,0,,,,,,,,,,,,,,,,,146.2944571999833,146.2944571999833,146.2944571999833,146.2944571999833,146.2944571999833,w,0.13677720000850968,146.45881789998384,146.45881789998384,146.861103800009,146.861103800009,,,,,,,,,,,,,,,,,,,,,,,,,,,,,,,,,,,,,,,,,,2023-04-12_11h41.11.461,bandit task,2022.2.5,60.03006306086641,
219,0,219,0,,,,,,,,,,,,,,,,,146.861103800009,146.861103800009,146.861103800009,146.861103800009,146.861103800009,w,0.1013241000182461,146.99197800000547,146.99197800000547,147.39404519999516,147.39404519999516,,,,,,,,,,,,,,,,,,,,,,,,,,,,,,,,,,,,,,,,,,2023-04-12_11h41.11.461,bandit task,2022.2.5,60.03006306086641,
220,0,220,0,,,,,,,,,,,,,,,,,147.39404519999516,147.39404519999516,147.39404519999516,147.39404519999516,147.39404519999516,w,0.1368081999826245,147.56039219998638,147.56039219998638,,,,,,,,,,,,,,,,,,,,,,,,,,,,,,,,,,,,,,,,,,,,2023-04-12_11h41.11.461,bandit task,2022.2.5,60.03006306086641,
221,0,221,0,,,,,,,,,,,,,,,,,147.97695539999404,147.97695539999404,147.97695539999404,147.97695539999404,147.97695539999404,w,0.26408059999812394,148.25789019998047,148.25789019998047,148.65984409998055,148.65984409998055,,,,,,,,,,,,,,,,,,,,,,,,,,,,,,,,,,,,,,,,,,2023-04-12_11h41.11.461,bandit task,2022.2.5,60.03006306086641,
222,0,222,0,,,,,,,,,,,,,,,,,148.65984409998055,148.65984409998055,148.65984409998055,148.65984409998055,148.65984409998055,w,0.08321330000762828,148.75771229999373,148.75771229999373,149.15984390000813,149.15984390000813,,,,,,,,,,,,,,,,,,,,,,,,,,,,,,,,,,,,,,,,,,2023-04-12_11h41.11.461,bandit task,2022.2.5,60.03006306086641,
223,0,223,0,,,,,,,,,,,,,,,,,149.15984390000813,149.15984390000813,149.15984390000813,149.15984390000813,149.15984390000813,w,0.09058790002018213,149.27416239999002,149.27416239999002,149.6760135999939,149.6760135999939,,,,,,,,,,,,,,,,,,,,,,,,,,,,,,,,,,,,,,,,,,2023-04-12_11h41.11.461,bandit task,2022.2.5,60.03006306086641,
224,0,224,0,,,,,,,,,,,,,,,,,149.6760135999939,149.6760135999939,149.6760135999939,149.6760135999939,149.6760135999939,w,0.06410839999443851,149.75727810000535,149.75727810000535,150.15911649999907,150.15911649999907,,,,,,,,,,,,,,,,,,,,,,,,,,,,,,,,,,,,,,,,,,2023-04-12_11h41.11.461,bandit task,2022.2.5,60.03006306086641,
225,0,225,0,,,,,,,,,,,,,,,,,150.15911649999907,150.15911649999907,150.15911649999907,150.15911649999907,150.15911649999907,w,0.06735549998120405,150.25693370000226,150.25693370000226,150.65889719998813,150.65889719998813,,,,,,,,,,,,,,,,,,,,,,,,,,,,,,,,,,,,,,,,,,2023-04-12_11h41.11.461,bandit task,2022.2.5,60.03006306086641,
226,0,226,0,,,,,,,,,,,,,,,,,150.65889719998813,150.65889719998813,150.65889719998813,150.65889719998813,150.65889719998813,w,0.043444300012197345,150.72345630000927,150.72345630000927,151.12551109999185,151.12551109999185,,,,,,,,,,,,,,,,,,,,,,,,,,,,,,,,,,,,,,,,,,2023-04-12_11h41.11.461,bandit task,2022.2.5,60.03006306086641,
227,0,227,0,,,,,,,,,,,,,,,,,151.12551109999185,151.12551109999185,151.12551109999185,151.12551109999185,151.12551109999185,w,0.043648599996231496,151.18980269998428,151.18980269998428,151.59170769999037,151.59170769999037,,,,,,,,,,,,,,,,,,,,,,,,,,,,,,,,,,,,,,,,,,2023-04-12_11h41.11.461,bandit task,2022.2.5,60.03006306086641,
228,0,228,0,,,,,,,,,,,,,,,,,151.59170769999037,151.59170769999037,151.59170769999037,151.59170769999037,151.59170769999037,w,0.05427259998396039,151.67286419999436,151.67286419999436,152.0748309000046,152.0748309000046,,,,,,,,,,,,,,,,,,,,,,,,,,,,,,,,,,,,,,,,,,2023-04-12_11h41.11.461,bandit task,2022.2.5,60.03006306086641,
229,0,229,0,,,,,,,,,,,,,,,,,152.0748309000046,152.0748309000046,152.0748309000046,152.0748309000046,152.0748309000046,w,0.05522050001309253,152.15611979999812,152.15611979999812,152.55783989999327,152.55783989999327,,,,,,,,,,,,,,,,,,,,,,,,,,,,,,,,,,,,,,,,,,2023-04-12_11h41.11.461,bandit task,2022.2.5,60.03006306086641,
230,0,230,0,,,,,,,,,,,,,,,,,152.55783989999327,152.55783989999327,152.55783989999327,152.55783989999327,152.55783989999327,w,0.059798200003569946,152.63929289998487,152.63929289998487,153.04173779999837,153.04173779999837,,,,,,,,,,,,,,,,,,,,,,,,,,,,,,,,,,,,,,,,,,2023-04-12_11h41.11.461,bandit task,2022.2.5,60.03006306086641,
231,0,231,0,,,,,,,,,,,,,,,,,153.04173779999837,153.04173779999837,153.04173779999837,153.04173779999837,153.04173779999837,w,0.05891279998468235,153.12201439999626,153.12201439999626,153.52418770000804,153.52418770000804,,,,,,,,,,,,,,,,,,,,,,,,,,,,,,,,,,,,,,,,,,2023-04-12_11h41.11.461,bandit task,2022.2.5,60.03006306086641,
232,0,232,0,,,,,,,,,,,,,,,,,153.52418770000804,153.52418770000804,153.52418770000804,153.52418770000804,153.52418770000804,w,0.06382310000481084,153.60534879998886,153.60534879998886,154.00733190000756,154.00733190000756,,,,,,,,,,,,,,,,,,,,,,,,,,,,,,,,,,,,,,,,,,2023-04-12_11h41.11.461,bandit task,2022.2.5,60.03006306086641,
233,0,233,0,,,,,,,,,,,,,,,,,154.00733190000756,154.00733190000756,154.00733190000756,154.00733190000756,154.00733190000756,w,0.06926399999065325,154.10493259999203,154.10493259999203,154.50694870000007,154.50694870000007,,,,,,,,,,,,,,,,,,,,,,,,,,,,,,,,,,,,,,,,,,2023-04-12_11h41.11.461,bandit task,2022.2.5,60.03006306086641,
234,0,234,0,,,,,,,,,,,,,,,,,154.50694870000007,154.50694870000007,154.50694870000007,154.50694870000007,154.50694870000007,w,0.08289769999100827,154.60468550000223,154.60468550000223,155.00682049998431,155.00682049998431,,,,,,,,,,,,,,,,,,,,,,,,,,,,,,,,,,,,,,,,,,2023-04-12_11h41.11.461,bandit task,2022.2.5,60.03006306086641,
235,0,235,0,,,,,,,,,,,,,,,,,155.00682049998431,155.00682049998431,155.00682049998431,155.00682049998431,155.00682049998431,w,0.040429300017422065,155.07114179999917,155.07114179999917,155.47318619998987,155.47318619998987,,,,,,,,,,,,,,,,,,,,,,,,,,,,,,,,,,,,,,,,,,2023-04-12_11h41.11.461,bandit task,2022.2.5,60.03006306086641,
236,0,236,0,,,,,,,,,,,,,,,,,155.47318619998987,155.47318619998987,155.47318619998987,155.47318619998987,155.47318619998987,w,0.06412169997929595,155.55421149998438,155.55421149998438,155.9561649999814,155.9561649999814,,,,,,,,,,,,,,,,,,,,,,,,,,,,,,,,,,,,,,,,,,2023-04-12_11h41.11.461,bandit task,2022.2.5,60.03006306086641,
237,0,237,0,,,,,,,,,,,,,,,,,155.9561649999814,155.9561649999814,155.9561649999814,155.9561649999814,155.9561649999814,w,0.04373139998642728,156.02104980000877,156.02104980000877,156.42261039998266,156.42261039998266,,,,,,,,,,,,,,,,,,,,,,,,,,,,,,,,,,,,,,,,,,2023-04-12_11h41.11.461,bandit task,2022.2.5,60.03006306086641,
238,0,238,0,,,,,,,,,,,,,,,,,156.42261039998266,156.42261039998266,156.42261039998266,156.42261039998266,156.42261039998266,w,0.04016679999767803,156.48735079998733,156.48735079998733,156.88908520000405,156.88908520000405,,,,,,,,,,,,,,,,,,,,,,,,,,,,,,,,,,,,,,,,,,2023-04-12_11h41.11.461,bandit task,2022.2.5,60.03006306086641,
239,0,239,0,,,,,,,,,,,,,,,,,156.88908520000405,156.88908520000405,156.88908520000405,156.88908520000405,156.88908520000405,w,0.09756249998463318,157.00349030000507,157.00349030000507,157.4055296999868,157.4055296999868,,,,,,,,,,,,,,,,,,,,,,,,,,,,,,,,,,,,,,,,,,2023-04-12_11h41.11.461,bandit task,2022.2.5,60.03006306086641,
240,0,240,0,,,,,,,,,,,,,,,,,157.4055296999868,157.4055296999868,157.4055296999868,157.4055296999868,157.4055296999868,w,0.02148939998005517,157.45333970000502,157.45333970000502,157.85551629998372,157.85551629998372,,,,,,,,,,,,,,,,,,,,,,,,,,,,,,,,,,,,,,,,,,2023-04-12_11h41.11.461,bandit task,2022.2.5,60.03006306086641,
241,0,241,0,,,,,,,,,,,,,,,,,157.85551629998372,157.85551629998372,157.85551629998372,157.85551629998372,157.85551629998372,w,0.07920109998667613,157.95305419998476,157.95305419998476,158.35492949999752,158.35492949999752,,,,,,,,,,,,,,,,,,,,,,,,,,,,,,,,,,,,,,,,,,2023-04-12_11h41.11.461,bandit task,2022.2.5,60.03006306086641,
242,0,242,0,,,,,,,,,,,,,,,,,158.35492949999752,158.35492949999752,158.35492949999752,158.35492949999752,158.35492949999752,w,0.24732769999536686,158.61922170000616,158.61922170000616,159.021233699983,159.021233699983,,,,,,,,,,,,,,,,,,,,,,,,,,,,,,,,,,,,,,,,,,2023-04-12_11h41.11.461,bandit task,2022.2.5,60.03006306086641,
243,0,243,0,,,,,,,,,,,,,,,,,159.021233699983,159.021233699983,159.021233699983,159.021233699983,159.021233699983,w,0.16845300002023578,159.21900290000485,159.21900290000485,159.62099759999546,159.62099759999546,,,,,,,,,,,,,,,,,,,,,,,,,,,,,,,,,,,,,,,,,,2023-04-12_11h41.11.461,bandit task,2022.2.5,60.03006306086641,
244,0,244,0,,,,,,,,,,,,,,,,,159.62099759999546,159.62099759999546,159.62099759999546,159.62099759999546,159.62099759999546,w,0.15091200001188554,159.80231569998432,159.80231569998432,160.20389489998342,160.20389489998342,,,,,,,,,,,,,,,,,,,,,,,,,,,,,,,,,,,,,,,,,,2023-04-12_11h41.11.461,bandit task,2022.2.5,60.03006306086641,
245,0,245,0,,,,,,,,,,,,,,,,,160.20389489998342,160.20389489998342,160.20389489998342,160.20389489998342,160.20389489998342,w,0.10188140001264401,160.33509419998154,160.33509419998154,160.73695869999938,160.73695869999938,,,,,,,,,,,,,,,,,,,,,,,,,,,,,,,,,,,,,,,,,,2023-04-12_11h41.11.461,bandit task,2022.2.5,60.03006306086641,
246,0,246,0,,,,,,,,,,,,,,,,,160.73695869999938,160.73695869999938,160.73695869999938,160.73695869999938,160.73695869999938,w,0.09801919999881648,160.8579224999994,160.8579224999994,,,,,,,,,,,,,,,,,,,,,,,,,,,,,,,,,,,,,,,,,,,,2023-04-12_11h41.11.461,bandit task,2022.2.5,60.03006306086641,
247,0,247,0,,,,,,,,,,,,,,,,,161.27041070000269,161.27041070000269,161.27041070000269,161.27041070000269,161.27041070000269,w,0.0710790999874007,161.36802130000433,161.36802130000433,161.77038339999854,161.77038339999854,,,,,,,,,,,,,,,,,,,,,,,,,,,,,,,,,,,,,,,,,,2023-04-12_11h41.11.461,bandit task,2022.2.5,60.03006306086641,
248,0,248,0,,,,,,,,,,,,,,,,,161.77038339999854,161.77038339999854,161.77038339999854,161.77038339999854,161.77038339999854,w,0.18024879999575205,161.96756289998302,161.96756289998302,162.36991340000532,162.36991340000532,,,,,,,,,,,,,,,,,,,,,,,,,,,,,,,,,,,,,,,,,,2023-04-12_11h41.11.461,bandit task,2022.2.5,60.03006306086641,
249,0,249,0,,,,,,,,,,,,,,,,,162.36991340000532,162.36991340000532,162.36991340000532,162.36991340000532,162.36991340000532,w,0.14938399998936802,162.53402289998485,162.53402289998485,162.93594470000244,162.93594470000244,,,,,,,,,,,,,,,,,,,,,,,,,,,,,,,,,,,,,,,,,,2023-04-12_11h41.11.461,bandit task,2022.2.5,60.03006306086641,
250,0,250,0,,,,,,,,,,,,,,,,,162.93594470000244,162.93594470000244,162.93594470000244,162.93594470000244,162.93594470000244,w,0.13572990000830032,163.10045399999944,163.10045399999944,163.50223429998732,163.50223429998732,,,,,,,,,,,,,,,,,,,,,,,,,,,,,,,,,,,,,,,,,,2023-04-12_11h41.11.461,bandit task,2022.2.5,60.03006306086641,
251,0,251,0,,,,,,,,,,,,,,,,,163.50223429998732,163.50223429998732,163.50223429998732,163.50223429998732,163.50223429998732,w,0.09588319997419603,163.6166816999903,163.6166816999903,164.0184701999824,164.0184701999824,,,,,,,,,,,,,,,,,,,,,,,,,,,,,,,,,,,,,,,,,,2023-04-12_11h41.11.461,bandit task,2022.2.5,60.03006306086641,
252,0,252,0,,,,,,,,,,,,,,,,,164.0184701999824,164.0184701999824,164.0184701999824,164.0184701999824,164.0184701999824,w,0.11409789999015629,164.14984269998968,164.14984269998968,164.55184790000203,164.55184790000203,,,,,,,,,,,,,,,,,,,,,,,,,,,,,,,,,,,,,,,,,,2023-04-12_11h41.11.461,bandit task,2022.2.5,60.03006306086641,
253,0,253,0,,,,,,,,,,,,,,,,,164.55184790000203,164.55184790000203,164.55184790000203,164.55184790000203,164.55184790000203,w,0.07670279999729246,164.64978380000684,164.64978380000684,165.0517809999874,165.0517809999874,,,,,,,,,,,,,,,,,,,,,,,,,,,,,,,,,,,,,,,,,,2023-04-12_11h41.11.461,bandit task,2022.2.5,60.03006306086641,
254,0,254,0,,,,,,,,,,,,,,,,,165.0517809999874,165.0517809999874,165.0517809999874,165.0517809999874,165.0517809999874,w,0.07501039997441694,165.1493419999897,165.1493419999897,165.55125620000763,165.55125620000763,,,,,,,,,,,,,,,,,,,,,,,,,,,,,,,,,,,,,,,,,,2023-04-12_11h41.11.461,bandit task,2022.2.5,60.03006306086641,
255,0,255,0,,,,,,,,,,,,,,,,,165.55125620000763,165.55125620000763,165.55125620000763,165.55125620000763,165.55125620000763,w,0.09749359998386353,165.6656774999865,165.6656774999865,166.0675751999952,166.0675751999952,,,,,,,,,,,,,,,,,,,,,,,,,,,,,,,,,,,,,,,,,,2023-04-12_11h41.11.461,bandit task,2022.2.5,60.03006306086641,
256,0,256,0,,,,,,,,,,,,,,,,,166.0675751999952,166.0675751999952,166.0675751999952,166.0675751999952,166.0675751999952,w,0.11554970001452602,166.19880379998358,166.19880379998358,166.60079299999052,166.60079299999052,,,,,,,,,,,,,,,,,,,,,,,,,,,,,,,,,,,,,,,,,,2023-04-12_11h41.11.461,bandit task,2022.2.5,60.03006306086641,
257,0,257,0,,,,,,,,,,,,,,,,,166.60079299999052,166.60079299999052,166.60079299999052,166.60079299999052,166.60079299999052,w,0.08399679997819476,166.71529309998732,166.71529309998732,167.1172169999918,167.1172169999918,,,,,,,,,,,,,,,,,,,,,,,,,,,,,,,,,,,,,,,,,,2023-04-12_11h41.11.461,bandit task,2022.2.5,60.03006306086641,
258,0,258,0,,,,,,,,,,,,,,,,,167.1172169999918,167.1172169999918,167.1172169999918,167.1172169999918,167.1172169999918,w,0.06424480001442134,167.19822269998258,167.19822269998258,167.60003709999728,167.60003709999728,,,,,,,,,,,,,,,,,,,,,,,,,,,,,,,,,,,,,,,,,,2023-04-12_11h41.11.461,bandit task,2022.2.5,60.03006306086641,
259,0,259,0,,,,,,,,,,,,,,,,,167.60003709999728,167.60003709999728,167.60003709999728,167.60003709999728,167.60003709999728,w,0.1255980999849271,167.7479922999919,167.7479922999919,168.15004330000374,168.15004330000374,,,,,,,,,,,,,,,,,,,,,,,,,,,,,,,,,,,,,,,,,,2023-04-12_11h41.11.461,bandit task,2022.2.5,60.03006306086641,
260,0,260,0,,,,,,,,,,,,,,,,,168.15004330000374,168.15004330000374,168.15004330000374,168.15004330000374,168.15004330000374,w,0.15589069997076876,168.33095430000685,168.33095430000685,168.73296269998536,168.73296269998536,,,,,,,,,,,,,,,,,,,,,,,,,,,,,,,,,,,,,,,,,,2023-04-12_11h41.11.461,bandit task,2022.2.5,60.03006306086641,
261,0,261,0,,,,,,,,,,,,,,,,,168.73296269998536,168.73296269998536,168.73296269998536,168.73296269998536,168.73296269998536,w,0.10456079998402856,168.86434860000736,168.86434860000736,169.2660984999966,169.2660984999966,,,,,,,,,,,,,,,,,,,,,,,,,,,,,,,,,,,,,,,,,,2023-04-12_11h41.11.461,bandit task,2022.2.5,60.03006306086641,
262,0,262,0,,,,,,,,,,,,,,,,,169.2660984999966,169.2660984999966,169.2660984999966,169.2660984999966,169.2660984999966,w,0.06621099999756552,169.34705819998635,169.34705819998635,169.74911909998627,169.74911909998627,,,,,,,,,,,,,,,,,,,,,,,,,,,,,,,,,,,,,,,,,,2023-04-12_11h41.11.461,bandit task,2022.2.5,60.03006306086641,
263,0,263,0,,,,,,,,,,,,,,,,,169.74911909998627,169.74911909998627,169.74911909998627,169.74911909998627,169.74911909998627,w,0.1372696000034921,169.91355830000248,169.91355830000248,170.31556580000324,170.31556580000324,,,,,,,,,,,,,,,,,,,,,,,,,,,,,,,,,,,,,,,,,,2023-04-12_11h41.11.461,bandit task,2022.2.5,60.03006306086641,
264,0,264,0,,,,,,,,,,,,,,,,,170.31556580000324,170.31556580000324,170.31556580000324,170.31556580000324,170.31556580000324,w,0.11195250001037493,170.44661899999483,170.44661899999483,170.8484591000015,170.8484591000015,,,,,,,,,,,,,,,,,,,,,,,,,,,,,,,,,,,,,,,,,,2023-04-12_11h41.11.461,bandit task,2022.2.5,60.03006306086641,
265,0,265,0,,,,,,,,,,,,,,,,,170.8484591000015,170.8484591000015,170.8484591000015,170.8484591000015,170.8484591000015,w,0.17823669998324476,171.04631159998826,171.04631159998826,171.44818010000745,171.44818010000745,,,,,,,,,,,,,,,,,,,,,,,,,,,,,,,,,,,,,,,,,,2023-04-12_11h41.11.461,bandit task,2022.2.5,60.03006306086641,
266,0,266,0,,,,,,,,,,,,,,,,,171.44818010000745,171.44818010000745,171.44818010000745,171.44818010000745,171.44818010000745,w,0.14769439998781309,171.61271270000725,171.61271270000725,172.0146209000086,172.0146209000086,,,,,,,,,,,,,,,,,,,,,,,,,,,,,,,,,,,,,,,,,,2023-04-12_11h41.11.461,bandit task,2022.2.5,60.03006306086641,
267,0,267,0,,,,,,,,,,,,,,,,,172.0146209000086,172.0146209000086,172.0146209000086,172.0146209000086,172.0146209000086,w,0.11581899999873713,172.14568889999646,172.14568889999646,172.54779819998657,172.54779819998657,,,,,,,,,,,,,,,,,,,,,,,,,,,,,,,,,,,,,,,,,,2023-04-12_11h41.11.461,bandit task,2022.2.5,60.03006306086641,
268,0,268,0,,,,,,,,,,,,,,,,,172.54779819998657,172.54779819998657,172.54779819998657,172.54779819998657,172.54779819998657,w,0.16177540001808666,172.72873020000407,172.72873020000407,173.1306277999829,173.1306277999829,,,,,,,,,,,,,,,,,,,,,,,,,,,,,,,,,,,,,,,,,,2023-04-12_11h41.11.461,bandit task,2022.2.5,60.03006306086641,
269,0,269,0,,,,,,,,,,,,,,,,,173.1306277999829,173.1306277999829,173.1306277999829,173.1306277999829,173.1306277999829,w,0.04985919999307953,173.195129300002,173.195129300002,173.5968595999875,173.5968595999875,,,,,,,,,,,,,,,,,,,,,,,,,,,,,,,,,,,,,,,,,,2023-04-12_11h41.11.461,bandit task,2022.2.5,60.03006306086641,
270,0,270,0,,,,,,,,,,,,,,,,,173.5968595999875,173.5968595999875,173.5968595999875,173.5968595999875,173.5968595999875,w,0.10195090001798235,173.72818609999376,173.72818609999376,174.13025429999107,174.13025429999107,,,,,,,,,,,,,,,,,,,,,,,,,,,,,,,,,,,,,,,,,,2023-04-12_11h41.11.461,bandit task,2022.2.5,60.03006306086641,
271,0,271,0,,,,,,,,,,,,,,,,,174.13025429999107,174.13025429999107,174.13025429999107,174.13025429999107,174.13025429999107,w,0.11632659999304451,174.26143240000238,174.26143240000238,174.6632510999916,174.6632510999916,,,,,,,,,,,,,,,,,,,,,,,,,,,,,,,,,,,,,,,,,,2023-04-12_11h41.11.461,bandit task,2022.2.5,60.03006306086641,
272,0,272,0,,,,,,,,,,,,,,,,,174.6632510999916,174.6632510999916,174.6632510999916,174.6632510999916,174.6632510999916,w,0.1639978000021074,174.84431680000853,174.84431680000853,175.2461340999871,175.2461340999871,,,,,,,,,,,,,,,,,,,,,,,,,,,,,,,,,,,,,,,,,,2023-04-12_11h41.11.461,bandit task,2022.2.5,60.03006306086641,
273,0,273,0,,,,,,,,,,,,,,,,,175.2461340999871,175.2461340999871,175.2461340999871,175.2461340999871,175.2461340999871,w,0.1739428000000771,175.4439805999864,175.4439805999864,175.8459642000089,175.8459642000089,,,,,,,,,,,,,,,,,,,,,,,,,,,,,,,,,,,,,,,,,,2023-04-12_11h41.11.461,bandit task,2022.2.5,60.03006306086641,
274,0,274,0,,,,,,,,,,,,,,,,,175.8459642000089,175.8459642000089,175.8459642000089,175.8459642000089,175.8459642000089,w,0.07148780001443811,175.94403399998555,175.94403399998555,176.34579669998493,176.34579669998493,,,,,,,,,,,,,,,,,,,,,,,,,,,,,,,,,,,,,,,,,,2023-04-12_11h41.11.461,bandit task,2022.2.5,60.03006306086641,
275,0,275,0,,,,,,,,,,,,,,,,,176.34579669998493,176.34579669998493,176.34579669998493,176.34579669998493,176.34579669998493,w,0.12689549999777228,176.49341599998297,176.49341599998297,176.895803899999,176.895803899999,,,,,,,,,,,,,,,,,,,,,,,,,,,,,,,,,,,,,,,,,,2023-04-12_11h41.11.461,bandit task,2022.2.5,60.03006306086641,
276,0,276,0,,,,,,,,,,,,,,,,,176.895803899999,176.895803899999,176.895803899999,176.895803899999,176.895803899999,w,0.11905420001130551,177.04322170000523,177.04322170000523,177.44519520000904,177.44519520000904,,,,,,,,,,,,,,,,,,,,,,,,,,,,,,,,,,,,,,,,,,2023-04-12_11h41.11.461,bandit task,2022.2.5,60.03006306086641,
277,0,277,0,,,,,,,,,,,,,,,,,177.44519520000904,177.44519520000904,177.44519520000904,177.44519520000904,177.44519520000904,w,0.24021740001626313,177.71229080000194,177.71229080000194,,,,,,,,,,,,,,,,,,,,,,,,,,,,,,,,,,,,,,,,,,,,2023-04-12_11h41.11.461,bandit task,2022.2.5,60.03006306086641,
278,0,278,0,,,,,,,,,,,,,,,,,178.1283429999894,178.1283429999894,178.1283429999894,178.1283429999894,178.1283429999894,w,0.13218329998198897,178.27615349998814,178.27615349998814,178.6779661999899,178.6779661999899,,,,,,,,,,,,,,,,,,,,,,,,,,,,,,,,,,,,,,,,,,2023-04-12_11h41.11.461,bandit task,2022.2.5,60.03006306086641,
279,0,279,0,,,,,,,,,,,,,,,,,178.6779661999899,178.6779661999899,178.6779661999899,178.6779661999899,178.6779661999899,w,0.1597079999919515,178.85896039998624,178.85896039998624,179.26111819999642,179.26111819999642,,,,,,,,,,,,,,,,,,,,,,,,,,,,,,,,,,,,,,,,,,2023-04-12_11h41.11.461,bandit task,2022.2.5,60.03006306086641,
280,0,280,0,,,,,,,,,,,,,,,,,179.26111819999642,179.26111819999642,179.26111819999642,179.26111819999642,179.26111819999642,w,0.1462648999877274,179.42528039999888,179.42528039999888,179.8273544999829,179.8273544999829,,,,,,,,,,,,,,,,,,,,,,,,,,,,,,,,,,,,,,,,,,2023-04-12_11h41.11.461,bandit task,2022.2.5,60.03006306086641,
281,0,281,0,,,,,,,,,,,,,,,,,179.8273544999829,179.8273544999829,179.8273544999829,179.8273544999829,179.8273544999829,w,0.16899549998925067,180.02502020000247,180.02502020000247,180.4268863000034,180.4268863000034,,,,,,,,,,,,,,,,,,,,,,,,,,,,,,,,,,,,,,,,,,2023-04-12_11h41.11.461,bandit task,2022.2.5,60.03006306086641,
282,0,282,0,,,,,,,,,,,,,,,,,180.4268863000034,180.4268863000034,180.4268863000034,180.4268863000034,180.4268863000034,w,0.18641239998396486,180.64135879999958,180.64135879999958,181.04325419999077,181.04325419999077,,,,,,,,,,,,,,,,,,,,,,,,,,,,,,,,,,,,,,,,,,2023-04-12_11h41.11.461,bandit task,2022.2.5,60.03006306086641,
283,0,283,0,,,,,,,,,,,,,,,,,181.04325419999077,181.04325419999077,181.04325419999077,181.04325419999077,181.04325419999077,w,0.06823100001201965,181.14120280000498,181.14120280000498,181.5430148000014,181.5430148000014,,,,,,,,,,,,,,,,,,,,,,,,,,,,,,,,,,,,,,,,,,2023-04-12_11h41.11.461,bandit task,2022.2.5,60.03006306086641,
284,0,284,0,,,,,,,,,,,,,,,,,181.5430148000014,181.5430148000014,181.5430148000014,181.5430148000014,181.5430148000014,w,0.0849517000024207,181.65761599998223,181.65761599998223,182.05985689998488,182.05985689998488,,,,,,,,,,,,,,,,,,,,,,,,,,,,,,,,,,,,,,,,,,2023-04-12_11h41.11.461,bandit task,2022.2.5,60.03006306086641,
285,0,285,0,,,,,,,,,,,,,,,,,182.05985689998488,182.05985689998488,182.05985689998488,182.05985689998488,182.05985689998488,w,0.09324970000307076,182.17908899998292,182.17908899998292,,,,,,,,,,,,,,,,,,,,,,,,,,,,,,,,,,,,,,,,,,,,2023-04-12_11h41.11.461,bandit task,2022.2.5,60.03006306086641,
286,0,286,0,,,,,,,,,,,,,,,,,182.592327499995,182.592327499995,182.592327499995,182.592327499995,182.592327499995,w,0.09087519999593496,182.70689820000553,182.70689820000553,183.10907089998364,183.10907089998364,,,,,,,,,,,,,,,,,,,,,,,,,,,,,,,,,,,,,,,,,,2023-04-12_11h41.11.461,bandit task,2022.2.5,60.03006306086641,
287,0,287,0,,,,,,,,,,,,,,,,,183.10907089998364,183.10907089998364,183.10907089998364,183.10907089998364,183.10907089998364,w,0.13658680001390167,183.27881260000868,183.27881260000868,,,,,,,,,,,,,,,,,,,,,,,,,,,,,,,,,,,,,,,,,,,,2023-04-12_11h41.11.461,bandit task,2022.2.5,60.03006306086641,
288,0,288,0,,,,,,,,,,,,,,,,,183.69174270000076,183.69174270000076,183.69174270000076,183.69174270000076,183.69174270000076,w,0.16998769997735508,183.88982159999432,183.88982159999432,184.29204410000239,184.29204410000239,,,,,,,,,,,,,,,,,,,,,,,,,,,,,,,,,,,,,,,,,,2023-04-12_11h41.11.461,bandit task,2022.2.5,60.03006306086641,
289,0,289,0,,,,,,,,,,,,,,,,,184.29204410000239,184.29204410000239,184.29204410000239,184.29204410000239,184.29204410000239,w,0.052537099982146174,184.37268509998103,184.37268509998103,184.77512030000798,184.77512030000798,,,,,,,,,,,,,,,,,,,,,,,,,,,,,,,,,,,,,,,,,,2023-04-12_11h41.11.461,bandit task,2022.2.5,60.03006306086641,
290,0,290,0,,,,,,,,,,,,,,,,,184.77512030000798,184.77512030000798,184.77512030000798,184.77512030000798,184.77512030000798,w,0.0618053000071086,184.85590219998267,184.85590219998267,185.25794429998496,185.25794429998496,,,,,,,,,,,,,,,,,,,,,,,,,,,,,,,,,,,,,,,,,,2023-04-12_11h41.11.461,bandit task,2022.2.5,60.03006306086641,
291,0,291,0,,,,,,,,,,,,,,,,,185.25794429998496,185.25794429998496,185.25794429998496,185.25794429998496,185.25794429998496,w,0.1130262000078801,185.38904660000117,185.38904660000117,185.79091099998914,185.79091099998914,,,,,,,,,,,,,,,,,,,,,,,,,,,,,,,,,,,,,,,,,,2023-04-12_11h41.11.461,bandit task,2022.2.5,60.03006306086641,
292,0,292,0,,,,,,,,,,,,,,,,,185.79091099998914,185.79091099998914,185.79091099998914,185.79091099998914,185.79091099998914,w,0.130801799998153,185.9386305999942,185.9386305999942,186.34082909999415,186.34082909999415,,,,,,,,,,,,,,,,,,,,,,,,,,,,,,,,,,,,,,,,,,2023-04-12_11h41.11.461,bandit task,2022.2.5,60.03006306086641,
293,0,293,0,,,,,,,,,,,,,,,,,186.34082909999415,186.34082909999415,186.34082909999415,186.34082909999415,186.34082909999415,w,0.15320829997654073,186.5217875999806,186.5217875999806,186.9236535000091,186.9236535000091,,,,,,,,,,,,,,,,,,,,,,,,,,,,,,,,,,,,,,,,,,2023-04-12_11h41.11.461,bandit task,2022.2.5,60.03006306086641,
294,0,294,0,,,,,,,,,,,,,,,,,186.9236535000091,186.9236535000091,186.9236535000091,186.9236535000091,186.9236535000091,w,0.1513963000033982,187.10472479998134,187.10472479998134,187.5067415999947,187.5067415999947,,,,,,,,,,,,,,,,,,,,,,,,,,,,,,,,,,,,,,,,,,2023-04-12_11h41.11.461,bandit task,2022.2.5,60.03006306086641,
295,0,295,0,,,,,,,,,,,,,,,,,187.5067415999947,187.5067415999947,187.5067415999947,187.5067415999947,187.5067415999947,w,0.16124849999323487,187.68815959998756,187.68815959998756,188.08980119999615,188.08980119999615,,,,,,,,,,,,,,,,,,,,,,,,,,,,,,,,,,,,,,,,,,2023-04-12_11h41.11.461,bandit task,2022.2.5,60.03006306086641,
296,0,296,0,,,,,,,,,,,,,,,,,188.08980119999615,188.08980119999615,188.08980119999615,188.08980119999615,188.08980119999615,w,0.09743650001473725,188.20430029998533,188.20430029998533,188.6061134999909,188.6061134999909,,,,,,,,,,,,,,,,,,,,,,,,,,,,,,,,,,,,,,,,,,2023-04-12_11h41.11.461,bandit task,2022.2.5,60.03006306086641,
297,0,297,0,,,,,,,,,,,,,,,,,188.6061134999909,188.6061134999909,188.6061134999909,188.6061134999909,188.6061134999909,w,0.2787112999940291,188.90393249999033,188.90393249999033,189.30581150000216,189.30581150000216,,,,,,,,,,,,,,,,,,,,,,,,,,,,,,,,,,,,,,,,,,2023-04-12_11h41.11.461,bandit task,2022.2.5,60.03006306086641,
298,0,298,0,,,,,,,,,,,,,,,,,189.30581150000216,189.30581150000216,189.30581150000216,189.30581150000216,189.30581150000216,w,0.17857010001898743,189.5033670999983,189.5033670999983,189.90548610000405,189.90548610000405,,,,,,,,,,,,,,,,,,,,,,,,,,,,,,,,,,,,,,,,,,2023-04-12_11h41.11.461,bandit task,2022.2.5,60.03006306086641,
299,0,299,0,0,0,0,0,,,,,,,,,,,,,189.90548610000405,189.90548610000405,189.90548610000405,189.90548610000405,189.90548610000405,w,0.1613634999957867,190.08655259999796,190.08655259999796,190.48629919998348,190.48629919998348,190.48629919998348,190.48629919998348,space,4.932422500016401,,,,,,,,,,,,,,,,,,,,,,,,,,,,,,,,,,,,,,2023-04-12_11h41.11.461,bandit task,2022.2.5,60.03006306086641,
299,0,299,0,,,,,,,,,,,,,,,,,,,,,,,,,,,,,,,,,,,,,,,,,,,,,,,,,,,,,,,,,,,,,,,,,,,,,2023-04-12_11h41.11.461,bandit task,2022.2.5,60.03006306086641,
300,0,300,0,,,,,,,,,,,,,,,,,195.45285249999142,195.45285249999142,195.45285249999142,195.45285249999142,195.45285249999142,w,0.6286637000157498,196.10018469998613,196.10018469998613,196.5022684999858,196.5022684999858,,,,,,,,,,,,,,,,,,,,,,,,,,,,,,,,,,,,,,,,,,2023-04-12_11h41.11.461,bandit task,2022.2.5,60.03006306086641,
301,0,301,0,,,,,,,,,,,,,,,,,196.5022684999858,196.5022684999858,196.5022684999858,196.5022684999858,196.5022684999858,w,0.045246099994983524,196.5666597999807,196.5666597999807,196.96858349998365,196.96858349998365,,,,,,,,,,,,,,,,,,,,,,,,,,,,,,,,,,,,,,,,,,2023-04-12_11h41.11.461,bandit task,2022.2.5,60.03006306086641,
302,0,302,0,,,,,,,,,,,,,,,,,196.96858349998365,196.96858349998365,196.96858349998365,196.96858349998365,196.96858349998365,w,0.06526960001792759,197.04976150000584,197.04976150000584,197.45169620000524,197.45169620000524,,,,,,,,,,,,,,,,,,,,,,,,,,,,,,,,,,,,,,,,,,2023-04-12_11h41.11.461,bandit task,2022.2.5,60.03006306086641,
303,0,303,0,,,,,,,,,,,,,,,,,197.45169620000524,197.45169620000524,197.45169620000524,197.45169620000524,197.45169620000524,w,0.018128600000636652,197.49935880000703,197.49935880000703,197.90137159998994,197.90137159998994,,,,,,,,,,,,,,,,,,,,,,,,,,,,,,,,,,,,,,,,,,2023-04-12_11h41.11.461,bandit task,2022.2.5,60.03006306086641,
304,0,304,0,,,,,,,,,,,,,,,,,197.90137159998994,197.90137159998994,197.90137159998994,197.90137159998994,197.90137159998994,w,0.025200999982189387,197.94913920000545,197.94913920000545,198.35114290000638,198.35114290000638,,,,,,,,,,,,,,,,,,,,,,,,,,,,,,,,,,,,,,,,,,2023-04-12_11h41.11.461,bandit task,2022.2.5,60.03006306086641,
305,0,305,0,,,,,,,,,,,,,,,,,198.35114290000638,198.35114290000638,198.35114290000638,198.35114290000638,198.35114290000638,w,0.07520379999186844,198.4490523999848,198.4490523999848,198.85056699998677,198.85056699998677,,,,,,,,,,,,,,,,,,,,,,,,,,,,,,,,,,,,,,,,,,2023-04-12_11h41.11.461,bandit task,2022.2.5,60.03006306086641,
306,0,306,0,,,,,,,,,,,,,,,,,198.85056699998677,198.85056699998677,198.85056699998677,198.85056699998677,198.85056699998677,q,0.14655339997261763,199.01537159999134,199.01537159999134,199.41719659999944,199.41719659999944,,,,,,,,,,,,,,,,,,,,,,,,,,,,,,,,,,,,,,,,,,2023-04-12_11h41.11.461,bandit task,2022.2.5,60.03006306086641,
307,0,307,0,,,,,,,,,,,,,,,,,199.41719659999944,199.41719659999944,199.41719659999944,199.41719659999944,199.41719659999944,q,0.0665242999966722,199.4983615000092,199.4983615000092,199.9002319999854,199.9002319999854,,,,,,,,,,,,,,,,,,,,,,,,,,,,,,,,,,,,,,,,,,2023-04-12_11h41.11.461,bandit task,2022.2.5,60.03006306086641,
308,0,308,0,,,,,,,,,,,,,,,,,199.9002319999854,199.9002319999854,199.9002319999854,199.9002319999854,199.9002319999854,q,0.12913719998323359,200.0481760999828,200.0481760999828,200.45008099998813,200.45008099998813,,,,,,,,,,,,,,,,,,,,,,,,,,,,,,,,,,,,,,,,,,2023-04-12_11h41.11.461,bandit task,2022.2.5,60.03006306086641,
309,0,309,0,,,,,,,,,,,,,,,,,200.45008099998813,200.45008099998813,200.45008099998813,200.45008099998813,200.45008099998813,q,0.07311669999035075,200.54788289999124,200.54788289999124,200.94952470000135,200.94952470000135,,,,,,,,,,,,,,,,,,,,,,,,,,,,,,,,,,,,,,,,,,2023-04-12_11h41.11.461,bandit task,2022.2.5,60.03006306086641,
