utrials.thisRepN,utrials.thisTrialN,utrials.thisN,utrials.thisIndex,trials_2.thisRepN,trials_2.thisTrialN,trials_2.thisN,trials_2.thisIndex,trials.thisRepN,trials.thisTrialN,trials.thisN,trials.thisIndex,trials_3.thisRepN,trials_3.thisTrialN,trials_3.thisN,trials_3.thisIndex,uIntrotext.started,uenter_resp.started,uenter_resp.keys,uenter_resp.rt,ukey_resp.started,Q.started,W.started,O.started,P.started,ukey_resp.keys,ukey_resp.rt,sad1.started,text_3.started,sad1.stopped,text_3.stopped,text.started,enterresp.started,enterresp.keys,enterresp.rt,Optionq.started,optionw.started,optiono.started,Optionp.started,key_resp.started,Ql.started,Wl.started,Ol.started,Pl.started,Optionq.stopped,optionw.stopped,optiono.stopped,Optionp.stopped,key_resp.stopped,Ql.stopped,Wl.stopped,Ol.stopped,Pl.stopped,key_resp.keys,clk.started,sad.started,sad.stopped,text_2.started,clk.stopped,text_2.stopped,key_resp.rt,text_4.started,Roll Number,Name,date,expName,psychopyVersion,frameRate,
,,,,,,,,,,,,,,,,17.780441199894994,17.780441199894994,space,3.7934369002468884,,,,,,,,,,,,,,,,,,,,,,,,,,,,,,,,,,,,,,,,,,,111,sdfsd,2023-04-12_21h58.02.977,bandit task,2022.2.5,143.24882606609773,
0,0,0,0,,,,,,,,,,,,,,,,,21.60384100000374,21.60384100000374,21.60384100000374,21.60384100000374,21.60384100000374,q,0.6845726000610739,22.30634759995155,22.30634759995155,,,,,,,,,,,,,,,,,,,,,,,,,,,,,,,,,,111,sdfsd,2023-04-12_21h58.02.977,bandit task,2022.2.5,143.24882606609773,
1,0,1,0,,,,,,,,,,,,,,,,,22.70769999991171,22.70769999991171,22.70769999991171,22.70769999991171,22.70769999991171,w,0.33397230016998947,23.052523199934512,23.052523199934512,23.457409600028768,23.457409600028768,,,,,,,,,,,,,,,,,,,,,,,,,,,,,,,,111,sdfsd,2023-04-12_21h58.02.977,bandit task,2022.2.5,143.24882606609773,
2,0,2,0,,,,,,,,,,,,,,,,,23.457409600028768,23.457409600028768,23.457409600028768,23.457409600028768,23.457409600028768,o,0.35484890011139214,23.823445999994874,23.823445999994874,24.228761799866334,24.228761799866334,,,,,,,,,,,,,,,,,,,,,,,,,,,,,,,,111,sdfsd,2023-04-12_21h58.02.977,bandit task,2022.2.5,143.24882606609773,
3,0,3,0,,,,,,,,,,,,,,,,,24.228761799866334,24.228761799866334,24.228761799866334,24.228761799866334,24.228761799866334,q,0.31137670017778873,24.5475697000511,24.5475697000511,24.950271300040185,24.950271300040185,,,,,,,,,,,,,,,,,,,,,,,,,,,,,,,,111,sdfsd,2023-04-12_21h58.02.977,bandit task,2022.2.5,143.24882606609773,
4,0,4,0,,,,,,,,,,,,,,,,,24.950271300040185,24.950271300040185,24.950271300040185,24.950271300040185,24.950271300040185,p,0.3605645000934601,25.318568699993193,25.318568699993193,25.720943999942392,25.720943999942392,,,,,,,,,,,,,,,,,,,,,,,,,,,,,,,,111,sdfsd,2023-04-12_21h58.02.977,bandit task,2022.2.5,143.24882606609773,
5,0,5,0,,,,,,,,,,,,,,,,,25.720943999942392,25.720943999942392,25.720943999942392,25.720943999942392,25.720943999942392,q,0.31067309994250536,26.038928400026634,26.038928400026634,26.44336699997075,26.44336699997075,,,,,,,,,,,,,,,,,,,,,,,,,,,,,,,,111,sdfsd,2023-04-12_21h58.02.977,bandit task,2022.2.5,143.24882606609773,
6,0,6,0,,,,,,,,,,,,,,,,,26.44336699997075,26.44336699997075,26.44336699997075,26.44336699997075,26.44336699997075,w,0.3217019001021981,26.775102899875492,26.775102899875492,27.17940720007755,27.17940720007755,,,,,,,,,,,,,,,,,,,,,,,,,,,,,,,,111,sdfsd,2023-04-12_21h58.02.977,bandit task,2022.2.5,143.24882606609773,
7,0,7,0,,,,,,,,,,,,,,,,,27.17940720007755,27.17940720007755,27.17940720007755,27.17940720007755,27.17940720007755,q,0.31613630009815097,27.507010499946773,27.507010499946773,27.908510099863634,27.908510099863634,,,,,,,,,,,,,,,,,,,,,,,,,,,,,,,,111,sdfsd,2023-04-12_21h58.02.977,bandit task,2022.2.5,143.24882606609773,
8,0,8,0,,,,,,,,,,,,,,,,,27.908510099863634,27.908510099863634,27.908510099863634,27.908510099863634,27.908510099863634,p,0.2865698002278805,28.205529999919236,28.205529999919236,28.609751000069082,28.609751000069082,,,,,,,,,,,,,,,,,,,,,,,,,,,,,,,,111,sdfsd,2023-04-12_21h58.02.977,bandit task,2022.2.5,143.24882606609773,
9,0,9,0,,,,,,,,,,,,,,,,,28.609751000069082,28.609751000069082,28.609751000069082,28.609751000069082,28.609751000069082,p,0.29182939999736845,28.90877850004472,28.90877850004472,29.311342699918896,29.311342699918896,,,,,,,,,,,,,,,,,,,,,,,,,,,,,,,,111,sdfsd,2023-04-12_21h58.02.977,bandit task,2022.2.5,143.24882606609773,
10,0,10,0,,,,,,,,,,,,,,,,,29.311342699918896,29.311342699918896,29.311342699918896,29.311342699918896,29.311342699918896,p,0.3539853000547737,29.670636099996045,29.670636099996045,30.07525429991074,30.07525429991074,,,,,,,,,,,,,,,,,,,,,,,,,,,,,,,,111,sdfsd,2023-04-12_21h58.02.977,bandit task,2022.2.5,143.24882606609773,
11,0,11,0,,,,,,,,,,,,,,,,,30.07525429991074,30.07525429991074,30.07525429991074,30.07525429991074,30.07525429991074,q,0.21714190021157265,30.302671399898827,30.302671399898827,30.707179799908772,30.707179799908772,,,,,,,,,,,,,,,,,,,,,,,,,,,,,,,,111,sdfsd,2023-04-12_21h58.02.977,bandit task,2022.2.5,143.24882606609773,
12,0,12,0,,,,,,,,,,,,,,,,,30.707179799908772,30.707179799908772,30.707179799908772,30.707179799908772,30.707179799908772,q,0.21428210008889437,30.928872799966484,30.928872799966484,31.3324342998676,31.3324342998676,,,,,,,,,,,,,,,,,,,,,,,,,,,,,,,,111,sdfsd,2023-04-12_21h58.02.977,bandit task,2022.2.5,143.24882606609773,
13,0,13,0,,,,,,,,,,,,,,,,,31.3324342998676,31.3324342998676,31.3324342998676,31.3324342998676,31.3324342998676,p,0.26740230014547706,31.609575599897653,31.609575599897653,32.01272480003536,32.01272480003536,,,,,,,,,,,,,,,,,,,,,,,,,,,,,,,,111,sdfsd,2023-04-12_21h58.02.977,bandit task,2022.2.5,143.24882606609773,
14,0,14,0,,,,,,,,,,,,,,,,,32.01272480003536,32.01272480003536,32.01272480003536,32.01272480003536,32.01272480003536,o,0.2587416002061218,32.28220060002059,32.28220060002059,32.68617059988901,32.68617059988901,,,,,,,,,,,,,,,,,,,,,,,,,,,,,,,,111,sdfsd,2023-04-12_21h58.02.977,bandit task,2022.2.5,143.24882606609773,
15,0,15,0,,,,,,,,,,,,,,,,,32.68617059988901,32.68617059988901,32.68617059988901,32.68617059988901,32.68617059988901,q,0.23756120004691184,32.93504719994962,32.93504719994962,33.33940549986437,33.33940549986437,,,,,,,,,,,,,,,,,,,,,,,,,,,,,,,,111,sdfsd,2023-04-12_21h58.02.977,bandit task,2022.2.5,143.24882606609773,
16,0,16,0,,,,,,,,,,,,,,,,,33.33940549986437,33.33940549986437,33.33940549986437,33.33940549986437,33.33940549986437,q,0.17888360004872084,33.52542389999144,33.52542389999144,33.9291685000062,33.9291685000062,,,,,,,,,,,,,,,,,,,,,,,,,,,,,,,,111,sdfsd,2023-04-12_21h58.02.977,bandit task,2022.2.5,143.24882606609773,
17,0,17,0,,,,,,,,,,,,,,,,,33.9291685000062,33.9291685000062,33.9291685000062,33.9291685000062,33.9291685000062,p,0.16530410014092922,34.1027365999762,34.1027365999762,34.50609749997966,34.50609749997966,,,,,,,,,,,,,,,,,,,,,,,,,,,,,,,,111,sdfsd,2023-04-12_21h58.02.977,bandit task,2022.2.5,143.24882606609773,
18,0,18,0,,,,,,,,,,,,,,,,,34.50609749997966,34.50609749997966,34.50609749997966,34.50609749997966,34.50609749997966,p,0.22725390014238656,34.741008299868554,34.741008299868554,35.144881800049916,35.144881800049916,,,,,,,,,,,,,,,,,,,,,,,,,,,,,,,,111,sdfsd,2023-04-12_21h58.02.977,bandit task,2022.2.5,143.24882606609773,
19,0,19,0,,,,,,,,,,,,,,,,,35.144881800049916,35.144881800049916,35.144881800049916,35.144881800049916,35.144881800049916,q,0.17871060012839735,35.331128699937835,35.331128699937835,35.734977799933404,35.734977799933404,,,,,,,,,,,,,,,,,,,,,,,,,,,,,,,,111,sdfsd,2023-04-12_21h58.02.977,bandit task,2022.2.5,143.24882606609773,
20,0,20,0,,,,,,,,,,,,,,,,,35.734977799933404,35.734977799933404,35.734977799933404,35.734977799933404,35.734977799933404,q,0.18761790008284152,35.934178499970585,35.934178499970585,36.339305399917066,36.339305399917066,,,,,,,,,,,,,,,,,,,,,,,,,,,,,,,,111,sdfsd,2023-04-12_21h58.02.977,bandit task,2022.2.5,143.24882606609773,
21,0,21,0,,,,,,,,,,,,,,,,,36.339305399917066,36.339305399917066,36.339305399917066,36.339305399917066,36.339305399917066,p,0.13459910009987652,36.48272369988263,36.48272369988263,36.88751839986071,36.88751839986071,,,,,,,,,,,,,,,,,,,,,,,,,,,,,,,,111,sdfsd,2023-04-12_21h58.02.977,bandit task,2022.2.5,143.24882606609773,
22,0,22,0,,,,,,,,,,,,,,,,,36.88751839986071,36.88751839986071,36.88751839986071,36.88751839986071,36.88751839986071,o,0.20492120017297566,37.104099499993026,37.104099499993026,37.50626779999584,37.50626779999584,,,,,,,,,,,,,,,,,,,,,,,,,,,,,,,,111,sdfsd,2023-04-12_21h58.02.977,bandit task,2022.2.5,143.24882606609773,
23,0,23,0,,,,,,,,,,,,,,,,,37.50626779999584,37.50626779999584,37.50626779999584,37.50626779999584,37.50626779999584,p,0.18257670011371374,37.70036439993419,37.70036439993419,38.103532899869606,38.103532899869606,,,,,,,,,,,,,,,,,,,,,,,,,,,,,,,,111,sdfsd,2023-04-12_21h58.02.977,bandit task,2022.2.5,143.24882606609773,
24,0,24,0,,,,,,,,,,,,,,,,,38.103532899869606,38.103532899869606,38.103532899869606,38.103532899869606,38.103532899869606,o,0.1659964001737535,38.27535060001537,38.27535060001537,38.67921059997752,38.67921059997752,,,,,,,,,,,,,,,,,,,,,,,,,,,,,,,,111,sdfsd,2023-04-12_21h58.02.977,bandit task,2022.2.5,143.24882606609773,
25,0,25,0,,,,,,,,,,,,,,,,,38.67921059997752,38.67921059997752,38.67921059997752,38.67921059997752,38.67921059997752,p,0.20725830015726388,38.894175299908966,38.894175299908966,39.297263599932194,39.297263599932194,,,,,,,,,,,,,,,,,,,,,,,,,,,,,,,,111,sdfsd,2023-04-12_21h58.02.977,bandit task,2022.2.5,143.24882606609773,
26,0,26,0,,,,,,,,,,,,,,,,,39.297263599932194,39.297263599932194,39.297263599932194,39.297263599932194,39.297263599932194,q,0.1959643999580294,39.504552399972454,39.504552399972454,39.90843279985711,39.90843279985711,,,,,,,,,,,,,,,,,,,,,,,,,,,,,,,,111,sdfsd,2023-04-12_21h58.02.977,bandit task,2022.2.5,143.24882606609773,
27,0,27,0,,,,,,,,,,,,,,,,,39.90843279985711,39.90843279985711,39.90843279985711,39.90843279985711,39.90843279985711,o,0.12640680000185966,40.04561899998225,40.04561899998225,40.45008039986715,40.45008039986715,,,,,,,,,,,,,,,,,,,,,,,,,,,,,,,,111,sdfsd,2023-04-12_21h58.02.977,bandit task,2022.2.5,143.24882606609773,
28,0,28,0,,,,,,,,,,,,,,,,,40.45008039986715,40.45008039986715,40.45008039986715,40.45008039986715,40.45008039986715,p,0.10624190024100244,40.567896799882874,40.567896799882874,40.97103799995966,40.97103799995966,,,,,,,,,,,,,,,,,,,,,,,,,,,,,,,,111,sdfsd,2023-04-12_21h58.02.977,bandit task,2022.2.5,143.24882606609773,
29,0,29,0,,,,,,,,,,,,,,,,,40.97103799995966,40.97103799995966,40.97103799995966,40.97103799995966,40.97103799995966,q,0.12509789993055165,41.10203599999659,41.10203599999659,41.505913299974054,41.505913299974054,,,,,,,,,,,,,,,,,,,,,,,,,,,,,,,,111,sdfsd,2023-04-12_21h58.02.977,bandit task,2022.2.5,143.24882606609773,
30,0,30,0,,,,,,,,,,,,,,,,,41.505913299974054,41.505913299974054,41.505913299974054,41.505913299974054,41.505913299974054,p,0.10388570022769272,41.6163923998829,41.6163923998829,42.019573299912736,42.019573299912736,,,,,,,,,,,,,,,,,,,,,,,,,,,,,,,,111,sdfsd,2023-04-12_21h58.02.977,bandit task,2022.2.5,143.24882606609773,
31,0,31,0,,,,,,,,,,,,,,,,,42.019573299912736,42.019573299912736,42.019573299912736,42.019573299912736,42.019573299912736,o,0.5206238001119345,42.54603359987959,42.54603359987959,42.95018649986014,42.95018649986014,,,,,,,,,,,,,,,,,,,,,,,,,,,,,,,,111,sdfsd,2023-04-12_21h58.02.977,bandit task,2022.2.5,143.24882606609773,
32,0,32,0,,,,,,,,,,,,,,,,,42.95018649986014,42.95018649986014,42.95018649986014,42.95018649986014,42.95018649986014,q,0.17172690015286207,43.129076099954545,43.129076099954545,43.533556799869984,43.533556799869984,,,,,,,,,,,,,,,,,,,,,,,,,,,,,,,,111,sdfsd,2023-04-12_21h58.02.977,bandit task,2022.2.5,143.24882606609773,
33,0,33,0,,,,,,,,,,,,,,,,,43.533556799869984,43.533556799869984,43.533556799869984,43.533556799869984,43.533556799869984,p,0.41621690010651946,43.954784699948505,43.954784699948505,,,,,,,,,,,,,,,,,,,,,,,,,,,,,,,,,,111,sdfsd,2023-04-12_21h58.02.977,bandit task,2022.2.5,143.24882606609773,
34,0,34,0,,,,,,,,,,,,,,,,,44.359941199887544,44.359941199887544,44.359941199887544,44.359941199887544,44.359941199887544,q,0.18929330026730895,44.56017019995488,44.56017019995488,44.964643500046805,44.964643500046805,,,,,,,,,,,,,,,,,,,,,,,,,,,,,,,,111,sdfsd,2023-04-12_21h58.02.977,bandit task,2022.2.5,143.24882606609773,
35,0,35,0,,,,,,,,,,,,,,,,,44.964643500046805,44.964643500046805,44.964643500046805,44.964643500046805,44.964643500046805,p,0.11234130011871457,45.09016830008477,45.09016830008477,45.49182110000402,45.49182110000402,,,,,,,,,,,,,,,,,,,,,,,,,,,,,,,,111,sdfsd,2023-04-12_21h58.02.977,bandit task,2022.2.5,143.24882606609773,
36,0,36,0,,,,,,,,,,,,,,,,,45.49182110000402,45.49182110000402,45.49182110000402,45.49182110000402,45.49182110000402,q,0.15989340003579855,45.6578351999633,45.6578351999633,46.06115349987522,46.06115349987522,,,,,,,,,,,,,,,,,,,,,,,,,,,,,,,,111,sdfsd,2023-04-12_21h58.02.977,bandit task,2022.2.5,143.24882606609773,
37,0,37,0,,,,,,,,,,,,,,,,,46.06115349987522,46.06115349987522,46.06115349987522,46.06115349987522,46.06115349987522,p,0.11594590009190142,46.18693249998614,46.18693249998614,46.58899289998226,46.58899289998226,,,,,,,,,,,,,,,,,,,,,,,,,,,,,,,,111,sdfsd,2023-04-12_21h58.02.977,bandit task,2022.2.5,143.24882606609773,
38,0,38,0,,,,,,,,,,,,,,,,,46.58899289998226,46.58899289998226,46.58899289998226,46.58899289998226,46.58899289998226,p,0.1715663003269583,46.7684547000099,46.7684547000099,47.17243380006403,47.17243380006403,,,,,,,,,,,,,,,,,,,,,,,,,,,,,,,,111,sdfsd,2023-04-12_21h58.02.977,bandit task,2022.2.5,143.24882606609773,
39,0,39,0,,,,,,,,,,,,,,,,,47.17243380006403,47.17243380006403,47.17243380006403,47.17243380006403,47.17243380006403,p,0.0956570003181696,47.276143399998546,47.276143399998546,47.677754499949515,47.677754499949515,,,,,,,,,,,,,,,,,,,,,,,,,,,,,,,,111,sdfsd,2023-04-12_21h58.02.977,bandit task,2022.2.5,143.24882606609773,
,,,,,,,,,,,,,,,,,,,,,,,,,,,,,,,47.677754499949515,47.677754499949515,space,5.721958100097254,,,,,,,,,,,,,,,,,,,,,,,,,,,,111,sdfsd,2023-04-12_21h58.02.977,bandit task,2022.2.5,143.24882606609773,
,,,,,,,,0,0,0,0,,,,,,,,,,,,,,,,,,,,,,,,53.409312800038606,53.409312800038606,53.409312800038606,53.409312800038606,53.409312800038606,53.409312800038606,53.409312800038606,53.409312800038606,53.409312800038606,54.40652669989504,54.40652669989504,54.40652669989504,54.40652669989504,54.40652669989504,54.40652669989504,54.40652669989504,54.40652669989504,54.40652669989504,None,54.40652669989504,54.40652669989504,54.40652669989504,54.40652669989504,54.81165959988721,54.81165959988721,,,111,sdfsd,2023-04-12_21h58.02.977,bandit task,2022.2.5,143.24882606609773,
,,,,,,,,1,0,1,0,,,,,,,,,,,,,,,,,,,,,,,,54.81165959988721,54.81165959988721,54.81165959988721,54.81165959988721,54.81165959988721,54.81165959988721,54.81165959988721,54.81165959988721,54.81165959988721,,,,,,,,,,q,55.17188660008833,55.17188660008833,55.57536859996617,55.17188660008833,55.17188660008833,55.57536859996617,0.35354610020294785,,111,sdfsd,2023-04-12_21h58.02.977,bandit task,2022.2.5,143.24882606609773,
,,,,,,,,2,0,2,0,,,,,,,,,,,,,,,,,,,,,,,,55.57536859996617,55.57536859996617,55.57536859996617,55.57536859996617,55.57536859996617,55.57536859996617,55.57536859996617,55.57536859996617,55.57536859996617,,,,,,,,,,p,55.848353300010785,55.848353300010785,56.25570739991963,55.848353300010785,55.848353300010785,56.25570739991963,0.2614246001467109,,111,sdfsd,2023-04-12_21h58.02.977,bandit task,2022.2.5,143.24882606609773,
,,,,,,,,3,0,3,0,,,,,,,,,,,,,,,,,,,,,,,,56.25570739991963,56.25570739991963,56.25570739991963,56.25570739991963,56.25570739991963,56.25570739991963,56.25570739991963,56.25570739991963,56.25570739991963,57.25370449991897,57.25370449991897,57.25370449991897,57.25370449991897,57.25370449991897,57.25370449991897,57.25370449991897,57.25370449991897,57.25370449991897,None,57.25370449991897,57.25370449991897,57.25370449991897,57.25370449991897,57.65819390001707,57.65819390001707,,,111,sdfsd,2023-04-12_21h58.02.977,bandit task,2022.2.5,143.24882606609773,
,,,,,,,,4,0,4,0,,,,,,,,,,,,,,,,,,,,,,,,57.65819390001707,57.65819390001707,57.65819390001707,57.65819390001707,57.65819390001707,57.65819390001707,57.65819390001707,57.65819390001707,57.65819390001707,,,,,,,,,,p,57.88625289988704,57.88625289988704,58.29033019999042,57.88625289988704,57.88625289988704,58.29033019999042,0.2169229001738131,,111,sdfsd,2023-04-12_21h58.02.977,bandit task,2022.2.5,143.24882606609773,
,,,,,,,,5,0,5,0,,,,,,,,,,,,,,,,,,,,,,,,58.29033019999042,58.29033019999042,58.29033019999042,58.29033019999042,58.29033019999042,58.29033019999042,58.29033019999042,58.29033019999042,58.29033019999042,,,,,,,,,,p,58.36579989991151,58.36579989991151,58.76951609994285,58.36579989991151,58.36579989991151,58.76951609994285,0.0639589000493288,,111,sdfsd,2023-04-12_21h58.02.977,bandit task,2022.2.5,143.24882606609773,
,,,,,,,,6,0,6,0,,,,,,,,,,,,,,,,,,,,,,,,58.76951609994285,58.76951609994285,58.76951609994285,58.76951609994285,58.76951609994285,58.76951609994285,58.76951609994285,58.76951609994285,58.76951609994285,,,,,,,,,,q,59.00338450004347,59.00338450004347,59.408454899908975,59.00338450004347,59.00338450004347,59.408454899908975,0.20660410006530583,,111,sdfsd,2023-04-12_21h58.02.977,bandit task,2022.2.5,143.24882606609773,
,,,,,,,,7,0,7,0,,,,,,,,,,,,,,,,,,,,,,,,59.408454899908975,59.408454899908975,59.408454899908975,59.408454899908975,59.408454899908975,59.408454899908975,59.408454899908975,59.408454899908975,59.408454899908975,,,,,,,,,,p,59.636960400035605,59.636960400035605,60.04049360007048,59.636960400035605,59.636960400035605,60.04049360007048,0.2216454001609236,,111,sdfsd,2023-04-12_21h58.02.977,bandit task,2022.2.5,143.24882606609773,
,,,,,,,,8,0,8,0,,,,,,,,,,,,,,,,,,,,,,,,60.04049360007048,60.04049360007048,60.04049360007048,60.04049360007048,60.04049360007048,60.04049360007048,60.04049360007048,60.04049360007048,60.04049360007048,,,,,,,,,,q,60.27624060004018,60.27624060004018,60.679703099885955,60.27624060004018,60.27624060004018,60.679703099885955,0.22911080019548535,,111,sdfsd,2023-04-12_21h58.02.977,bandit task,2022.2.5,143.24882606609773,
,,,,,,,,9,0,9,0,,,,,,,,,,,,,,,,,,,,,,,,60.679703099885955,60.679703099885955,60.679703099885955,60.679703099885955,60.679703099885955,60.679703099885955,60.679703099885955,60.679703099885955,60.679703099885955,,,,,,,,,,p,60.92805109987967,60.92805109987967,61.33213909994811,60.92805109987967,60.92805109987967,61.33213909994811,0.2390035002026707,,111,sdfsd,2023-04-12_21h58.02.977,bandit task,2022.2.5,143.24882606609773,
,,,,,,,,10,0,10,0,,,,,,,,,,,,,,,,,,,,,,,,61.33213909994811,61.33213909994811,61.33213909994811,61.33213909994811,61.33213909994811,61.33213909994811,61.33213909994811,61.33213909994811,61.33213909994811,,,,,,,,,,q,61.5120894999709,61.5120894999709,61.915613800054416,61.5120894999709,61.5120894999709,61.915613800054416,0.17348400014452636,,111,sdfsd,2023-04-12_21h58.02.977,bandit task,2022.2.5,143.24882606609773,
,,,,,,,,11,0,11,0,,,,,,,,,,,,,,,,,,,,,,,,61.915613800054416,61.915613800054416,61.915613800054416,61.915613800054416,61.915613800054416,61.915613800054416,61.915613800054416,61.915613800054416,61.915613800054416,,,,,,,,,,p,62.087527700001374,62.087527700001374,62.49201190005988,62.087527700001374,62.087527700001374,62.49201190005988,0.161327000008896,,111,sdfsd,2023-04-12_21h58.02.977,bandit task,2022.2.5,143.24882606609773,
,,,,,,,,12,0,12,0,,,,,,,,,,,,,,,,,,,,,,,,62.49201190005988,62.49201190005988,62.49201190005988,62.49201190005988,62.49201190005988,62.49201190005988,62.49201190005988,62.49201190005988,62.49201190005988,,,,,,,,,,w,63.067567500052974,63.067567500052974,63.471121799899265,63.067567500052974,63.067567500052974,63.471121799899265,0.5673154999967664,,111,sdfsd,2023-04-12_21h58.02.977,bandit task,2022.2.5,143.24882606609773,
,,,,,,,,13,0,13,0,,,,,,,,,,,,,,,,,,,,,,,,63.471121799899265,63.471121799899265,63.471121799899265,63.471121799899265,63.471121799899265,63.471121799899265,63.471121799899265,63.471121799899265,63.471121799899265,,,,,,,,,,o,63.691629299893975,63.691629299893975,64.09606519993395,63.691629299893975,63.691629299893975,64.09606519993395,0.21496100001968443,,111,sdfsd,2023-04-12_21h58.02.977,bandit task,2022.2.5,143.24882606609773,
,,,,,,,,14,0,14,0,,,,,,,,,,,,,,,,,,,,,,,,64.09606519993395,64.09606519993395,64.09606519993395,64.09606519993395,64.09606519993395,64.09606519993395,64.09606519993395,64.09606519993395,64.09606519993395,,,,,,,,,,q,64.31112379999831,64.31112379999831,64.71442289999686,64.31112379999831,64.31112379999831,64.71442289999686,0.20613650023005903,,111,sdfsd,2023-04-12_21h58.02.977,bandit task,2022.2.5,143.24882606609773,
,,,,,,,,15,0,15,0,,,,,,,,,,,,,,,,,,,,,,,,64.71442289999686,64.71442289999686,64.71442289999686,64.71442289999686,64.71442289999686,64.71442289999686,64.71442289999686,64.71442289999686,64.71442289999686,,,,,,,,,,p,64.87130940007046,64.87130940007046,65.27652719989419,64.87130940007046,64.87130940007046,65.27652719989419,0.14687110017985106,,111,sdfsd,2023-04-12_21h58.02.977,bandit task,2022.2.5,143.24882606609773,
,,,,,,,,16,0,16,0,,,,,,,,,,,,,,,,,,,,,,,,65.27652719989419,65.27652719989419,65.27652719989419,65.27652719989419,65.27652719989419,65.27652719989419,65.27652719989419,65.27652719989419,65.27652719989419,,,,,,,,,,w,65.47779450006783,65.47779450006783,65.88091659988277,65.47779450006783,65.47779450006783,65.88091659988277,0.19303420023061335,,111,sdfsd,2023-04-12_21h58.02.977,bandit task,2022.2.5,143.24882606609773,
,,,,,,,,17,0,17,0,,,,,,,,,,,,,,,,,,,,,,,,65.88091659988277,65.88091659988277,65.88091659988277,65.88091659988277,65.88091659988277,65.88091659988277,65.88091659988277,65.88091659988277,65.88091659988277,,,,,,,,,,p,66.11553319985978,66.11553319985978,66.52015120000578,66.11553319985978,66.11553319985978,66.52015120000578,0.22892339993268251,,111,sdfsd,2023-04-12_21h58.02.977,bandit task,2022.2.5,143.24882606609773,
,,,,,,,,18,0,18,0,,,,,,,,,,,,,,,,,,,,,,,,66.52015120000578,66.52015120000578,66.52015120000578,66.52015120000578,66.52015120000578,66.52015120000578,66.52015120000578,66.52015120000578,66.52015120000578,,,,,,,,,,q,66.68878920003772,66.68878920003772,67.09643290005624,66.68878920003772,66.68878920003772,67.09643290005624,0.1598827000707388,,111,sdfsd,2023-04-12_21h58.02.977,bandit task,2022.2.5,143.24882606609773,
,,,,,,,,19,0,19,0,,,,,,,,,,,,,,,,,,,,,,,,67.09643290005624,67.09643290005624,67.09643290005624,67.09643290005624,67.09643290005624,67.09643290005624,67.09643290005624,67.09643290005624,67.09643290005624,,,,,,,,,,p,67.26179610006511,67.26179610006511,67.66570260003209,67.26179610006511,67.26179610006511,67.66570260003209,0.1593824999872595,,111,sdfsd,2023-04-12_21h58.02.977,bandit task,2022.2.5,143.24882606609773,
,,,,,,,,20,0,20,0,,,,,,,,,,,,,,,,,,,,,,,,67.66570260003209,67.66570260003209,67.66570260003209,67.66570260003209,67.66570260003209,67.66570260003209,67.66570260003209,67.66570260003209,67.66570260003209,,,,,,,,,,w,67.8174487000797,67.8174487000797,68.22069970006123,67.8174487000797,67.8174487000797,68.22069970006123,0.14320890000090003,,111,sdfsd,2023-04-12_21h58.02.977,bandit task,2022.2.5,143.24882606609773,
,,,,,,,,21,0,21,0,,,,,,,,,,,,,,,,,,,,,,,,68.22069970006123,68.22069970006123,68.22069970006123,68.22069970006123,68.22069970006123,68.22069970006123,68.22069970006123,68.22069970006123,68.22069970006123,,,,,,,,,,p,68.41353849996813,68.41353849996813,68.81804169993848,68.41353849996813,68.41353849996813,68.81804169993848,0.18384760012850165,,111,sdfsd,2023-04-12_21h58.02.977,bandit task,2022.2.5,143.24882606609773,
,,,,,,,,22,0,22,0,,,,,,,,,,,,,,,,,,,,,,,,68.81804169993848,68.81804169993848,68.81804169993848,68.81804169993848,68.81804169993848,68.81804169993848,68.81804169993848,68.81804169993848,68.81804169993848,,,,,,,,,,q,68.96850179997273,68.96850179997273,69.3735619999934,68.96850179997273,68.96850179997273,69.3735619999934,0.14391770027577877,,111,sdfsd,2023-04-12_21h58.02.977,bandit task,2022.2.5,143.24882606609773,
,,,,,,,,23,0,23,0,,,,,,,,,,,,,,,,,,,,,,,,69.3735619999934,69.3735619999934,69.3735619999934,69.3735619999934,69.3735619999934,69.3735619999934,69.3735619999934,69.3735619999934,69.3735619999934,,,,,,,,,,p,69.48420109995641,69.48420109995641,69.88769680005498,69.48420109995641,69.48420109995641,69.88769680005498,0.09991320013068616,,111,sdfsd,2023-04-12_21h58.02.977,bandit task,2022.2.5,143.24882606609773,
,,,,,,,,24,0,24,0,,,,,,,,,,,,,,,,,,,,,,,,69.88769680005498,69.88769680005498,69.88769680005498,69.88769680005498,69.88769680005498,69.88769680005498,69.88769680005498,69.88769680005498,69.88769680005498,,,,,,,,,,w,70.01497639995068,70.01497639995068,70.42225850000978,70.01497639995068,70.01497639995068,70.42225850000978,0.11381000024266541,,111,sdfsd,2023-04-12_21h58.02.977,bandit task,2022.2.5,143.24882606609773,
,,,,,,,,25,0,25,0,,,,,,,,,,,,,,,,,,,,,,,,70.42225850000978,70.42225850000978,70.42225850000978,70.42225850000978,70.42225850000978,70.42225850000978,70.42225850000978,70.42225850000978,70.42225850000978,,,,,,,,,,p,70.5735096000135,70.5735096000135,70.97769299987704,70.5735096000135,70.5735096000135,70.97769299987704,0.1401213000062853,,111,sdfsd,2023-04-12_21h58.02.977,bandit task,2022.2.5,143.24882606609773,
,,,,,,,,26,0,26,0,,,,,,,,,,,,,,,,,,,,,,,,70.97769299987704,70.97769299987704,70.97769299987704,70.97769299987704,70.97769299987704,70.97769299987704,70.97769299987704,70.97769299987704,70.97769299987704,,,,,,,,,,q,71.03940910007805,71.03940910007805,71.44350029993802,71.03940910007805,71.03940910007805,71.44350029993802,0.050400299951434135,,111,sdfsd,2023-04-12_21h58.02.977,bandit task,2022.2.5,143.24882606609773,
,,,,,,,,27,0,27,0,,,,,,,,,,,,,,,,,,,,,,,,71.44350029993802,71.44350029993802,71.44350029993802,71.44350029993802,71.44350029993802,71.44350029993802,71.44350029993802,71.44350029993802,71.44350029993802,,,,,,,,,,p,71.56637830007821,71.56637830007821,71.97113389987499,71.56637830007821,71.56637830007821,71.97113389987499,0.11192709999158978,,111,sdfsd,2023-04-12_21h58.02.977,bandit task,2022.2.5,143.24882606609773,
,,,,,,,,28,0,28,0,,,,,,,,,,,,,,,,,,,,,,,,71.97113389987499,71.97113389987499,71.97113389987499,71.97113389987499,71.97113389987499,71.97113389987499,71.97113389987499,71.97113389987499,71.97113389987499,,,,,,,,,,w,71.99728580005467,71.99728580005467,72.40172199998051,71.99728580005467,71.99728580005467,72.40172199998051,0.015286000212654471,,111,sdfsd,2023-04-12_21h58.02.977,bandit task,2022.2.5,143.24882606609773,
,,,,,,,,29,0,29,0,,,,,,,,,,,,,,,,,,,,,,,,72.40172199998051,72.40172199998051,72.40172199998051,72.40172199998051,72.40172199998051,72.40172199998051,72.40172199998051,72.40172199998051,72.40172199998051,,,,,,,,,,p,72.50513829989359,72.50513829989359,72.9083867999725,72.50513829989359,72.50513829989359,72.9083867999725,0.09455180028453469,,111,sdfsd,2023-04-12_21h58.02.977,bandit task,2022.2.5,143.24882606609773,
,,,,,,,,30,0,30,0,,,,,,,,,,,,,,,,,,,,,,,,72.9083867999725,72.9083867999725,72.9083867999725,72.9083867999725,72.9083867999725,72.9083867999725,72.9083867999725,72.9083867999725,72.9083867999725,,,,,,,,,,q,72.99104669992812,72.99104669992812,73.39490090007894,72.99104669992812,72.99104669992812,73.39490090007894,0.07619170006364584,,111,sdfsd,2023-04-12_21h58.02.977,bandit task,2022.2.5,143.24882606609773,
,,,,,,,,31,0,31,0,,,,,,,,,,,,,,,,,,,,,,,,73.39490090007894,73.39490090007894,73.39490090007894,73.39490090007894,73.39490090007894,73.39490090007894,73.39490090007894,73.39490090007894,73.39490090007894,,,,,,,,,,p,73.53263979987241,73.53263979987241,73.93613220006227,73.53263979987241,73.53263979987241,73.93613220006227,0.12962200003676116,,111,sdfsd,2023-04-12_21h58.02.977,bandit task,2022.2.5,143.24882606609773,
,,,,,,,,32,0,32,0,,,,,,,,,,,,,,,,,,,,,,,,73.93613220006227,73.93613220006227,73.93613220006227,73.93613220006227,73.93613220006227,73.93613220006227,73.93613220006227,73.93613220006227,73.93613220006227,,,,,,,,,,w,73.97702799993567,73.97702799993567,74.38131739990786,73.97702799993567,73.97702799993567,74.38131739990786,0.03322540014050901,,111,sdfsd,2023-04-12_21h58.02.977,bandit task,2022.2.5,143.24882606609773,
,,,,,,,,33,0,33,0,,,,,,,,,,,,,,,,,,,,,,,,74.38131739990786,74.38131739990786,74.38131739990786,74.38131739990786,74.38131739990786,74.38131739990786,74.38131739990786,74.38131739990786,74.38131739990786,,,,,,,,,,p,74.39223009999841,74.39223009999841,74.79730019997805,74.39223009999841,74.39223009999841,74.79730019997805,0.0008159002754837275,,111,sdfsd,2023-04-12_21h58.02.977,bandit task,2022.2.5,143.24882606609773,
,,,,,,,,34,0,34,0,,,,,,,,,,,,,,,,,,,,,,,,74.79730019997805,74.79730019997805,74.79730019997805,74.79730019997805,74.79730019997805,74.79730019997805,74.79730019997805,74.79730019997805,74.79730019997805,,,,,,,,,,q,74.81691990001127,74.81691990001127,75.22082070005126,74.81691990001127,74.81691990001127,75.22082070005126,0.008414100157096982,,111,sdfsd,2023-04-12_21h58.02.977,bandit task,2022.2.5,143.24882606609773,
,,,,,,,,35,0,35,0,,,,,,,,,,,,,,,,,,,,,,,,75.22082070005126,75.22082070005126,75.22082070005126,75.22082070005126,75.22082070005126,75.22082070005126,75.22082070005126,75.22082070005126,75.22082070005126,,,,,,,,,,p,75.25347559992224,75.25347559992224,75.65824769996107,75.25347559992224,75.25347559992224,75.65824769996107,0.021695000119507313,,111,sdfsd,2023-04-12_21h58.02.977,bandit task,2022.2.5,143.24882606609773,
,,,,,,,,36,0,36,0,,,,,,,,,,,,,,,,,,,,,,,,75.65824769996107,75.65824769996107,75.65824769996107,75.65824769996107,75.65824769996107,75.65824769996107,75.65824769996107,75.65824769996107,75.65824769996107,,,,,,,,,,p,76.05377539992332,76.05377539992332,76.4569204999134,76.05377539992332,76.05377539992332,76.4569204999134,0.3889483001548797,,111,sdfsd,2023-04-12_21h58.02.977,bandit task,2022.2.5,143.24882606609773,
,,,,,,,,37,0,37,0,,,,,,,,,,,,,,,,,,,,,,,,76.4569204999134,76.4569204999134,76.4569204999134,76.4569204999134,76.4569204999134,76.4569204999134,76.4569204999134,76.4569204999134,76.4569204999134,,,,,,,,,,q,76.59444050001912,76.59444050001912,76.99856949993409,76.59444050001912,76.59444050001912,76.99856949993409,0.12640900001861155,,111,sdfsd,2023-04-12_21h58.02.977,bandit task,2022.2.5,143.24882606609773,
,,,,,,,,38,0,38,0,,,,,,,,,,,,,,,,,,,,,,,,76.99856949993409,76.99856949993409,76.99856949993409,76.99856949993409,76.99856949993409,76.99856949993409,76.99856949993409,76.99856949993409,76.99856949993409,,,,,,,,,,p,77.06027209991589,77.06027209991589,77.4642038999591,77.06027209991589,77.06027209991589,77.4642038999591,0.0499422000721097,,111,sdfsd,2023-04-12_21h58.02.977,bandit task,2022.2.5,143.24882606609773,
,,,,,,,,39,0,39,0,,,,,,,,,,,,,,,,,,,,,,,,77.4642038999591,77.4642038999591,77.4642038999591,77.4642038999591,77.4642038999591,77.4642038999591,77.4642038999591,77.4642038999591,77.4642038999591,,,,,,,,,,w,77.47674890002236,77.47674890002236,77.88104150001891,77.47674890002236,77.47674890002236,77.88104150001891,0.0014591000508517027,,111,sdfsd,2023-04-12_21h58.02.977,bandit task,2022.2.5,143.24882606609773,
,,,,,,,,,,,,,,,,,,,,,,,,,,,,,,,,,,,,,,,,,,,,,,,,,,,,,,,,,,,,,77.88104150001891,,,,,,,
