utrials.thisRepN,utrials.thisTrialN,utrials.thisN,utrials.thisIndex,trials_2.thisRepN,trials_2.thisTrialN,trials_2.thisN,trials_2.thisIndex,trials.thisRepN,trials.thisTrialN,trials.thisN,trials.thisIndex,trials_3.thisRepN,trials_3.thisTrialN,trials_3.thisN,trials_3.thisIndex,uIntrotext.started,uenter_resp.started,uenter_resp.keys,uenter_resp.rt,ukey_resp.started,Q.started,W.started,O.started,P.started,ukey_resp.keys,ukey_resp.rt,sad1.started,text_3.started,sad1.stopped,text_3.stopped,text_8.started,key_resp_5.started,key_resp_5.keys,key_resp_5.rt,text.started,enterresp.started,enterresp.keys,enterresp.rt,Optionq.started,optionw.started,optiono.started,Optionp.started,key_resp.started,Ql.started,Wl.started,Ol.started,Pl.started,Optionq.stopped,optionw.stopped,optiono.stopped,Optionp.stopped,key_resp.stopped,Ql.stopped,Wl.stopped,Ol.stopped,Pl.stopped,key_resp.keys,clk.started,sad.started,sad.stopped,text_2.started,clk.stopped,text_2.stopped,key_resp.rt,text_9.started,key_resp_4.started,key_resp_4.keys,key_resp_4.rt,text_4.started,Roll Number,Name,date,expName,psychopyVersion,frameRate,
,,,,,,,,,,,,,,,,19.142982400022447,19.142982400022447,space,8.086751299677417,,,,,,,,,,,,,,,,,,,,,,,,,,,,,,,,,,,,,,,,,,,,,,,,,,,sdfsd,weeew,2023-04-13_19h28.23.764,bandit task,2022.2.5,144.84650623637756,
0,0,0,0,,,,,,,,,,,,,,,,,27.269146300153807,27.269146300153807,27.269146300153807,27.269146300153807,27.269146300153807,q,0.44837290002033114,27.737938500009477,27.737938500009477,,,,,,,,,,,,,,,,,,,,,,,,,,,,,,,,,,,,,,,,,,sdfsd,weeew,2023-04-13_19h28.23.764,bandit task,2022.2.5,144.84650623637756,
1,0,1,0,,,,,,,,,,,,,,,,,28.13478700001724,28.13478700001724,28.13478700001724,28.13478700001724,28.13478700001724,o,0.24767689988948405,28.39346280018799,28.39346280018799,,,,,,,,,,,,,,,,,,,,,,,,,,,,,,,,,,,,,,,,,,sdfsd,weeew,2023-04-13_19h28.23.764,bandit task,2022.2.5,144.84650623637756,
2,0,2,0,,,,,,,,,,,,,,,,,28.80126260011457,28.80126260011457,28.80126260011457,28.80126260011457,28.80126260011457,p,0.2213488998822868,29.03108930005692,29.03108930005692,,,,,,,,,,,,,,,,,,,,,,,,,,,,,,,,,,,,,,,,,,sdfsd,weeew,2023-04-13_19h28.23.764,bandit task,2022.2.5,144.84650623637756,
3,0,3,0,,,,,,,,,,,,,,,,,29.436074000084773,29.436074000084773,29.436074000084773,29.436074000084773,29.436074000084773,w,0.1472895999904722,29.59622410009615,29.59622410009615,,,,,,,,,,,,,,,,,,,,,,,,,,,,,,,,,,,,,,,,,,sdfsd,weeew,2023-04-13_19h28.23.764,bandit task,2022.2.5,144.84650623637756,
4,0,4,0,,,,,,,,,,,,,,,,,30.0027573001571,30.0027573001571,30.0027573001571,30.0027573001571,30.0027573001571,q,0.1661564998794347,30.18163220002316,30.18163220002316,,,,,,,,,,,,,,,,,,,,,,,,,,,,,,,,,,,,,,,,,,sdfsd,weeew,2023-04-13_19h28.23.764,bandit task,2022.2.5,144.84650623637756,
5,0,5,0,,,,,,,,,,,,,,,,,30.585859399987385,30.585859399987385,30.585859399987385,30.585859399987385,30.585859399987385,o,0.1710956997703761,30.767698100069538,30.767698100069538,31.169298000168055,31.169298000168055,,,,,,,,,,,,,,,,,,,,,,,,,,,,,,,,,,,,,,,,sdfsd,weeew,2023-04-13_19h28.23.764,bandit task,2022.2.5,144.84650623637756,
6,0,6,0,,,,,,,,,,,,,,,,,31.169298000168055,31.169298000168055,31.169298000168055,31.169298000168055,31.169298000168055,p,0.18513729982078075,31.367360700154677,31.367360700154677,,,,,,,,,,,,,,,,,,,,,,,,,,,,,,,,,,,,,,,,,,sdfsd,weeew,2023-04-13_19h28.23.764,bandit task,2022.2.5,144.84650623637756,
7,0,7,0,,,,,,,,,,,,,,,,,31.773507200181484,31.773507200181484,31.773507200181484,31.773507200181484,31.773507200181484,q,0.1044894999358803,31.885451800189912,31.885451800189912,32.28685670020059,32.28685670020059,,,,,,,,,,,,,,,,,,,,,,,,,,,,,,,,,,,,,,,,sdfsd,weeew,2023-04-13_19h28.23.764,bandit task,2022.2.5,144.84650623637756,
8,0,8,0,,,,,,,,,,,,,,,,,32.28685670020059,32.28685670020059,32.28685670020059,32.28685670020059,32.28685670020059,w,0.15040679997764528,32.45057270000689,32.45057270000689,,,,,,,,,,,,,,,,,,,,,,,,,,,,,,,,,,,,,,,,,,sdfsd,weeew,2023-04-13_19h28.23.764,bandit task,2022.2.5,144.84650623637756,
9,0,9,0,,,,,,,,,,,,,,,,,32.856845000060275,32.856845000060275,32.856845000060275,32.856845000060275,32.856845000060275,o,0.17121389997191727,33.037972500082105,33.037972500082105,33.44010650017299,33.44010650017299,,,,,,,,,,,,,,,,,,,,,,,,,,,,,,,,,,,,,,,,sdfsd,weeew,2023-04-13_19h28.23.764,bandit task,2022.2.5,144.84650623637756,
10,0,10,0,,,,,,,,,,,,,,,,,33.44010650017299,33.44010650017299,33.44010650017299,33.44010650017299,33.44010650017299,p,0.06204819981940091,33.514081300003454,33.514081300003454,,,,,,,,,,,,,,,,,,,,,,,,,,,,,,,,,,,,,,,,,,sdfsd,weeew,2023-04-13_19h28.23.764,bandit task,2022.2.5,144.84650623637756,
11,0,11,0,,,,,,,,,,,,,,,,,33.91939190006815,33.91939190006815,33.91939190006815,33.91939190006815,33.91939190006815,q,0.140358499949798,34.071846100036055,34.071846100036055,34.47472110018134,34.47472110018134,,,,,,,,,,,,,,,,,,,,,,,,,,,,,,,,,,,,,,,,sdfsd,weeew,2023-04-13_19h28.23.764,bandit task,2022.2.5,144.84650623637756,
12,0,12,0,,,,,,,,,,,,,,,,,34.47472110018134,34.47472110018134,34.47472110018134,34.47472110018134,34.47472110018134,w,0.12975080008618534,34.61510460008867,34.61510460008867,35.01661040005274,35.01661040005274,,,,,,,,,,,,,,,,,,,,,,,,,,,,,,,,,,,,,,,,sdfsd,weeew,2023-04-13_19h28.23.764,bandit task,2022.2.5,144.84650623637756,
13,0,13,0,,,,,,,,,,,,,,,,,35.01661040005274,35.01661040005274,35.01661040005274,35.01661040005274,35.01661040005274,o,0.07075919979251921,35.10422360012308,35.10422360012308,,,,,,,,,,,,,,,,,,,,,,,,,,,,,,,,,,,,,,,,,,sdfsd,weeew,2023-04-13_19h28.23.764,bandit task,2022.2.5,144.84650623637756,
14,0,14,0,,,,,,,,,,,,,,,,,35.509271200047806,35.509271200047806,35.509271200047806,35.509271200047806,35.509271200047806,p,0.0465103997848928,35.565857000183314,35.565857000183314,35.967751500196755,35.967751500196755,,,,,,,,,,,,,,,,,,,,,,,,,,,,,,,,,,,,,,,,sdfsd,weeew,2023-04-13_19h28.23.764,bandit task,2022.2.5,144.84650623637756,
15,0,15,0,,,,,,,,,,,,,,,,,35.967751500196755,35.967751500196755,35.967751500196755,35.967751500196755,35.967751500196755,q,0.060270199785009027,36.03840130008757,36.03840130008757,36.440101500134915,36.440101500134915,,,,,,,,,,,,,,,,,,,,,,,,,,,,,,,,,,,,,,,,sdfsd,weeew,2023-04-13_19h28.23.764,bandit task,2022.2.5,144.84650623637756,
16,0,16,0,,,,,,,,,,,,,,,,,36.440101500134915,36.440101500134915,36.440101500134915,36.440101500134915,36.440101500134915,w,0.004475200083106756,36.45622769999318,36.45622769999318,,,,,,,,,,,,,,,,,,,,,,,,,,,,,,,,,,,,,,,,,,sdfsd,weeew,2023-04-13_19h28.23.764,bandit task,2022.2.5,144.84650623637756,
17,0,17,0,,,,,,,,,,,,,,,,,36.8639985001646,36.8639985001646,36.8639985001646,36.8639985001646,36.8639985001646,o,0.02517100004479289,36.90027690003626,36.90027690003626,,,,,,,,,,,,,,,,,,,,,,,,,,,,,,,,,,,,,,,,,,sdfsd,weeew,2023-04-13_19h28.23.764,bandit task,2022.2.5,144.84650623637756,
18,0,18,0,,,,,,,,,,,,,,,,,37.30775310005993,37.30775310005993,37.30775310005993,37.30775310005993,37.30775310005993,p,0.014072999823838472,37.33102440019138,37.33102440019138,,,,,,,,,,,,,,,,,,,,,,,,,,,,,,,,,,,,,,,,,,sdfsd,weeew,2023-04-13_19h28.23.764,bandit task,2022.2.5,144.84650623637756,
19,0,19,0,,,,,,,,,,,,,,,,,37.73869670019485,37.73869670019485,37.73869670019485,37.73869670019485,37.73869670019485,q,0.012174999807029963,37.76129900012165,37.76129900012165,,,,,,,,,,,,,,,,,,,,,,,,,,,,,,,,,,,,,,,,,,sdfsd,weeew,2023-04-13_19h28.23.764,bandit task,2022.2.5,144.84650623637756,
20,0,20,0,,,,,,,,,,,,,,,,,38.16918620001525,38.16918620001525,38.16918620001525,38.16918620001525,38.16918620001525,w,0.008210399886593223,38.187749500153586,38.187749500153586,,,,,,,,,,,,,,,,,,,,,,,,,,,,,,,,,,,,,,,,,,sdfsd,weeew,2023-04-13_19h28.23.764,bandit task,2022.2.5,144.84650623637756,
21,0,21,0,,,,,,,,,,,,,,,,,38.592950200196356,38.592950200196356,38.592950200196356,38.592950200196356,38.592950200196356,o,0.4387044997420162,39.044341100146994,39.044341100146994,39.44693370000459,39.44693370000459,,,,,,,,,,,,,,,,,,,,,,,,,,,,,,,,,,,,,,,,sdfsd,weeew,2023-04-13_19h28.23.764,bandit task,2022.2.5,144.84650623637756,
22,0,22,0,,,,,,,,,,,,,,,,,39.44693370000459,39.44693370000459,39.44693370000459,39.44693370000459,39.44693370000459,p,0.09046519990079105,39.54522359999828,39.54522359999828,39.94681100011803,39.94681100011803,,,,,,,,,,,,,,,,,,,,,,,,,,,,,,,,,,,,,,,,sdfsd,weeew,2023-04-13_19h28.23.764,bandit task,2022.2.5,144.84650623637756,
23,0,23,0,,,,,,,,,,,,,,,,,39.94681100011803,39.94681100011803,39.94681100011803,39.94681100011803,39.94681100011803,q,0.08585649984888732,40.044873300008476,40.044873300008476,40.446976700099185,40.446976700099185,,,,,,,,,,,,,,,,,,,,,,,,,,,,,,,,,,,,,,,,sdfsd,weeew,2023-04-13_19h28.23.764,bandit task,2022.2.5,144.84650623637756,
24,0,24,0,,,,,,,,,,,,,,,,,40.446976700099185,40.446976700099185,40.446976700099185,40.446976700099185,40.446976700099185,w,0.06527559994719923,40.52779560000636,40.52779560000636,,,,,,,,,,,,,,,,,,,,,,,,,,,,,,,,,,,,,,,,,,sdfsd,weeew,2023-04-13_19h28.23.764,bandit task,2022.2.5,144.84650623637756,
25,0,25,0,,,,,,,,,,,,,,,,,40.93277940014377,40.93277940014377,40.93277940014377,40.93277940014377,40.93277940014377,o,0.041480799904093146,40.98250630008988,40.98250630008988,41.38443540013395,41.38443540013395,,,,,,,,,,,,,,,,,,,,,,,,,,,,,,,,,,,,,,,,sdfsd,weeew,2023-04-13_19h28.23.764,bandit task,2022.2.5,144.84650623637756,
26,0,26,0,,,,,,,,,,,,,,,,,41.38443540013395,41.38443540013395,41.38443540013395,41.38443540013395,41.38443540013395,p,0.1221090997569263,41.51787460013293,41.51787460013293,,,,,,,,,,,,,,,,,,,,,,,,,,,,,,,,,,,,,,,,,,sdfsd,weeew,2023-04-13_19h28.23.764,bandit task,2022.2.5,144.84650623637756,
27,0,27,0,,,,,,,,,,,,,,,,,41.92597680003382,41.92597680003382,41.92597680003382,41.92597680003382,41.92597680003382,q,0.09782879985868931,42.03705739998259,42.03705739998259,42.440243100048974,42.440243100048974,,,,,,,,,,,,,,,,,,,,,,,,,,,,,,,,,,,,,,,,sdfsd,weeew,2023-04-13_19h28.23.764,bandit task,2022.2.5,144.84650623637756,
28,0,28,0,,,,,,,,,,,,,,,,,42.440243100048974,42.440243100048974,42.440243100048974,42.440243100048974,42.440243100048974,w,0.07591229979880154,42.525602400070056,42.525602400070056,,,,,,,,,,,,,,,,,,,,,,,,,,,,,,,,,,,,,,,,,,sdfsd,weeew,2023-04-13_19h28.23.764,bandit task,2022.2.5,144.84650623637756,
29,0,29,0,,,,,,,,,,,,,,,,,42.93318950012326,42.93318950012326,42.93318950012326,42.93318950012326,42.93318950012326,o,0.08516799984499812,43.03236600011587,43.03236600011587,,,,,,,,,,,,,,,,,,,,,,,,,,,,,,,,,,,,,,,,,,sdfsd,weeew,2023-04-13_19h28.23.764,bandit task,2022.2.5,144.84650623637756,
30,0,30,0,,,,,,,,,,,,,,,,,43.44028930016793,43.44028930016793,43.44028930016793,43.44028930016793,43.44028930016793,p,0.12414109986275434,43.57379040005617,43.57379040005617,,,,,,,,,,,,,,,,,,,,,,,,,,,,,,,,,,,,,,,,,,sdfsd,weeew,2023-04-13_19h28.23.764,bandit task,2022.2.5,144.84650623637756,
31,0,31,0,,,,,,,,,,,,,,,,,43.98162580002099,43.98162580002099,43.98162580002099,43.98162580002099,43.98162580002099,q,0.1036422997713089,44.096122100017965,44.096122100017965,,,,,,,,,,,,,,,,,,,,,,,,,,,,,,,,,,,,,,,,,,sdfsd,weeew,2023-04-13_19h28.23.764,bandit task,2022.2.5,144.84650623637756,
32,0,32,0,,,,,,,,,,,,,,,,,44.50291720009409,44.50291720009409,44.50291720009409,44.50291720009409,44.50291720009409,w,0.07333320006728172,44.58919299999252,44.58919299999252,,,,,,,,,,,,,,,,,,,,,,,,,,,,,,,,,,,,,,,,,,sdfsd,weeew,2023-04-13_19h28.23.764,bandit task,2022.2.5,144.84650623637756,
33,0,33,0,,,,,,,,,,,,,,,,,44.99527280009352,44.99527280009352,44.99527280009352,44.99527280009352,44.99527280009352,o,0.1372914998792112,45.14243090013042,45.14243090013042,45.54406650015153,45.54406650015153,,,,,,,,,,,,,,,,,,,,,,,,,,,,,,,,,,,,,,,,sdfsd,weeew,2023-04-13_19h28.23.764,bandit task,2022.2.5,144.84650623637756,
34,0,34,0,,,,,,,,,,,,,,,,,45.54406650015153,45.54406650015153,45.54406650015153,45.54406650015153,45.54406650015153,p,0.12261620000936091,45.67807810008526,45.67807810008526,,,,,,,,,,,,,,,,,,,,,,,,,,,,,,,,,,,,,,,,,,sdfsd,weeew,2023-04-13_19h28.23.764,bandit task,2022.2.5,144.84650623637756,
35,0,35,0,,,,,,,,,,,,,,,,,46.08623270015232,46.08623270015232,46.08623270015232,46.08623270015232,46.08623270015232,q,0.07431549998000264,46.171511800028384,46.171511800028384,,,,,,,,,,,,,,,,,,,,,,,,,,,,,,,,,,,,,,,,,,sdfsd,weeew,2023-04-13_19h28.23.764,bandit task,2022.2.5,144.84650623637756,
36,0,36,0,,,,,,,,,,,,,,,,,46.578971000155434,46.578971000155434,46.578971000155434,46.578971000155434,46.578971000155434,w,0.0787208997644484,46.67066629999317,46.67066629999317,47.07276360015385,47.07276360015385,,,,,,,,,,,,,,,,,,,,,,,,,,,,,,,,,,,,,,,,sdfsd,weeew,2023-04-13_19h28.23.764,bandit task,2022.2.5,144.84650623637756,
37,0,37,0,,,,,,,,,,,,,,,,,47.07276360015385,47.07276360015385,47.07276360015385,47.07276360015385,47.07276360015385,o,0.11554409982636571,47.19598360010423,47.19598360010423,47.59999670018442,47.59999670018442,,,,,,,,,,,,,,,,,,,,,,,,,,,,,,,,,,,,,,,,sdfsd,weeew,2023-04-13_19h28.23.764,bandit task,2022.2.5,144.84650623637756,
38,0,38,0,,,,,,,,,,,,,,,,,47.59999670018442,47.59999670018442,47.59999670018442,47.59999670018442,47.59999670018442,p,0.158081199740991,47.76839330000803,47.76839330000803,,,,,,,,,,,,,,,,,,,,,,,,,,,,,,,,,,,,,,,,,,sdfsd,weeew,2023-04-13_19h28.23.764,bandit task,2022.2.5,144.84650623637756,
39,0,39,0,,,,,,,,,,,,,,,,,48.1759958001785,48.1759958001785,48.1759958001785,48.1759958001785,48.1759958001785,q,0.09915939997881651,48.28813330014236,48.28813330014236,48.69047570019029,48.69047570019029,,,,,,,,,,,,,,,,,,,,,,,,,,,,,,,,,,,,,,,,sdfsd,weeew,2023-04-13_19h28.23.764,bandit task,2022.2.5,144.84650623637756,
40,0,40,0,,,,,,,,,,,,,,,,,48.69047570019029,48.69047570019029,48.69047570019029,48.69047570019029,48.69047570019029,w,0.1011898999568075,48.80245449999347,48.80245449999347,,,,,,,,,,,,,,,,,,,,,,,,,,,,,,,,,,,,,,,,,,sdfsd,weeew,2023-04-13_19h28.23.764,bandit task,2022.2.5,144.84650623637756,
41,0,41,0,,,,,,,,,,,,,,,,,49.21120050013997,49.21120050013997,49.21120050013997,49.21120050013997,49.21120050013997,o,0.04413769976235926,49.26986980019137,49.26986980019137,,,,,,,,,,,,,,,,,,,,,,,,,,,,,,,,,,,,,,,,,,sdfsd,weeew,2023-04-13_19h28.23.764,bandit task,2022.2.5,144.84650623637756,
42,0,42,0,,,,,,,,,,,,,,,,,49.67673010006547,49.67673010006547,49.67673010006547,49.67673010006547,49.67673010006547,p,0.09192559984512627,49.78126120008528,49.78126120008528,50.18314280011691,50.18314280011691,,,,,,,,,,,,,,,,,,,,,,,,,,,,,,,,,,,,,,,,sdfsd,weeew,2023-04-13_19h28.23.764,bandit task,2022.2.5,144.84650623637756,
43,0,43,0,,,,,,,,,,,,,,,,,50.18314280011691,50.18314280011691,50.18314280011691,50.18314280011691,50.18314280011691,q,0.13556259986944497,50.33085730019957,50.33085730019957,,,,,,,,,,,,,,,,,,,,,,,,,,,,,,,,,,,,,,,,,,sdfsd,weeew,2023-04-13_19h28.23.764,bandit task,2022.2.5,144.84650623637756,
44,0,44,0,,,,,,,,,,,,,,,,,50.73881180002354,50.73881180002354,50.73881180002354,50.73881180002354,50.73881180002354,w,0.041625899728387594,50.78883870015852,50.78883870015852,51.19146090000868,51.19146090000868,,,,,,,,,,,,,,,,,,,,,,,,,,,,,,,,,,,,,,,,sdfsd,weeew,2023-04-13_19h28.23.764,bandit task,2022.2.5,144.84650623637756,
45,0,45,0,,,,,,,,,,,,,,,,,51.19146090000868,51.19146090000868,51.19146090000868,51.19146090000868,51.19146090000868,o,0.07288799993693829,51.27623359998688,51.27623359998688,,,,,,,,,,,,,,,,,,,,,,,,,,,,,,,,,,,,,,,,,,sdfsd,weeew,2023-04-13_19h28.23.764,bandit task,2022.2.5,144.84650623637756,
46,0,46,0,,,,,,,,,,,,,,,,,51.683310700114816,51.683310700114816,51.683310700114816,51.683310700114816,51.683310700114816,p,0.12847290001809597,51.82299610017799,51.82299610017799,52.225891300011426,52.225891300011426,,,,,,,,,,,,,,,,,,,,,,,,,,,,,,,,,,,,,,,,sdfsd,weeew,2023-04-13_19h28.23.764,bandit task,2022.2.5,144.84650623637756,
47,0,47,0,,,,,,,,,,,,,,,,,52.225891300011426,52.225891300011426,52.225891300011426,52.225891300011426,52.225891300011426,q,0.12365720001980662,52.357203599996865,52.357203599996865,52.759336000075564,52.759336000075564,,,,,,,,,,,,,,,,,,,,,,,,,,,,,,,,,,,,,,,,sdfsd,weeew,2023-04-13_19h28.23.764,bandit task,2022.2.5,144.84650623637756,
48,0,48,0,,,,,,,,,,,,,,,,,52.759336000075564,52.759336000075564,52.759336000075564,52.759336000075564,52.759336000075564,w,0.12465379992499948,52.91495510004461,52.91495510004461,,,,,,,,,,,,,,,,,,,,,,,,,,,,,,,,,,,,,,,,,,sdfsd,weeew,2023-04-13_19h28.23.764,bandit task,2022.2.5,144.84650623637756,
49,0,49,0,,,,,,,,,,,,,,,,,53.32245840015821,53.32245840015821,53.32245840015821,53.32245840015821,53.32245840015821,o,0.06071290001273155,53.39215480000712,53.39215480000712,53.793856700183824,53.793856700183824,,,,,,,,,,,,,,,,,,,,,,,,,,,,,,,,,,,,,,,,sdfsd,weeew,2023-04-13_19h28.23.764,bandit task,2022.2.5,144.84650623637756,
50,0,50,0,,,,,,,,,,,,,,,,,53.793856700183824,53.793856700183824,53.793856700183824,53.793856700183824,53.793856700183824,p,0.10641599982045591,53.91275150002912,53.91275150002912,54.31523469998501,54.31523469998501,,,,,,,,,,,,,,,,,,,,,,,,,,,,,,,,,,,,,,,,sdfsd,weeew,2023-04-13_19h28.23.764,bandit task,2022.2.5,144.84650623637756,
51,0,51,0,,,,,,,,,,,,,,,,,54.31523469998501,54.31523469998501,54.31523469998501,54.31523469998501,54.31523469998501,q,0.07135179988108575,54.39939480018802,54.39939480018802,54.80290590017103,54.80290590017103,,,,,,,,,,,,,,,,,,,,,,,,,,,,,,,,,,,,,,,,sdfsd,weeew,2023-04-13_19h28.23.764,bandit task,2022.2.5,144.84650623637756,
52,0,52,0,,,,,,,,,,,,,,,,,54.80290590017103,54.80290590017103,54.80290590017103,54.80290590017103,54.80290590017103,w,0.062438599998131394,54.8785358001478,54.8785358001478,55.28063240018673,55.28063240018673,,,,,,,,,,,,,,,,,,,,,,,,,,,,,,,,,,,,,,,,sdfsd,weeew,2023-04-13_19h28.23.764,bandit task,2022.2.5,144.84650623637756,
53,0,53,0,,,,,,,,,,,,,,,,,55.28063240018673,55.28063240018673,55.28063240018673,55.28063240018673,55.28063240018673,o,0.005035199923440814,55.29539230000228,55.29539230000228,55.69659489998594,55.69659489998594,,,,,,,,,,,,,,,,,,,,,,,,,,,,,,,,,,,,,,,,sdfsd,weeew,2023-04-13_19h28.23.764,bandit task,2022.2.5,144.84650623637756,
54,0,54,0,,,,,,,,,,,,,,,,,55.69659489998594,55.69659489998594,55.69659489998594,55.69659489998594,55.69659489998594,p,0.06361559987999499,55.77329899999313,55.77329899999313,56.176592600066215,56.176592600066215,,,,,,,,,,,,,,,,,,,,,,,,,,,,,,,,,,,,,,,,sdfsd,weeew,2023-04-13_19h28.23.764,bandit task,2022.2.5,144.84650623637756,
55,0,55,0,,,,,,,,,,,,,,,,,56.176592600066215,56.176592600066215,56.176592600066215,56.176592600066215,56.176592600066215,q,0.04737239982932806,56.23314930009656,56.23314930009656,,,,,,,,,,,,,,,,,,,,,,,,,,,,,,,,,,,,,,,,,,sdfsd,weeew,2023-04-13_19h28.23.764,bandit task,2022.2.5,144.84650623637756,
56,0,56,0,,,,,,,,,,,,,,,,,56.641465600114316,56.641465600114316,56.641465600114316,56.641465600114316,56.641465600114316,w,0.022294199792668223,56.677449400071055,56.677449400071055,57.07920470018871,57.07920470018871,,,,,,,,,,,,,,,,,,,,,,,,,,,,,,,,,,,,,,,,sdfsd,weeew,2023-04-13_19h28.23.764,bandit task,2022.2.5,144.84650623637756,
57,0,57,0,,,,,,,,,,,,,,,,,57.07920470018871,57.07920470018871,57.07920470018871,57.07920470018871,57.07920470018871,p,0.48361839982680976,57.57311740005389,57.57311740005389,57.974459500052035,57.974459500052035,,,,,,,,,,,,,,,,,,,,,,,,,,,,,,,,,,,,,,,,sdfsd,weeew,2023-04-13_19h28.23.764,bandit task,2022.2.5,144.84650623637756,
58,0,58,0,,,,,,,,,,,,,,,,,57.974459500052035,57.974459500052035,57.974459500052035,57.974459500052035,57.974459500052035,p,0.436419399920851,58.42771390010603,58.42771390010603,,,,,,,,,,,,,,,,,,,,,,,,,,,,,,,,,,,,,,,,,,sdfsd,weeew,2023-04-13_19h28.23.764,bandit task,2022.2.5,144.84650623637756,
59,0,59,0,,,,,,,,,,,,,,,,,58.82942930003628,58.82942930003628,58.82942930003628,58.82942930003628,58.82942930003628,q,0.11710259993560612,58.959995300043374,58.959995300043374,,,,,,,,,,,,,,,,,,,,,,,,,,,,,,,,,,,,,,,,,,sdfsd,weeew,2023-04-13_19h28.23.764,bandit task,2022.2.5,144.84650623637756,
60,0,60,0,,,,,,,,,,,,,,,,,59.36424380005337,59.36424380005337,59.36424380005337,59.36424380005337,59.36424380005337,w,0.08754009986296296,59.46500260010362,59.46500260010362,,,,,,,,,,,,,,,,,,,,,,,,,,,,,,,,,,,,,,,,,,sdfsd,weeew,2023-04-13_19h28.23.764,bandit task,2022.2.5,144.84650623637756,
61,0,61,0,,,,,,,,,,,,,,,,,59.87051080004312,59.87051080004312,59.87051080004312,59.87051080004312,59.87051080004312,o,0.06319919973611832,59.94785370002501,59.94785370002501,60.34944790019654,60.34944790019654,,,,,,,,,,,,,,,,,,,,,,,,,,,,,,,,,,,,,,,,sdfsd,weeew,2023-04-13_19h28.23.764,bandit task,2022.2.5,144.84650623637756,
62,0,62,0,,,,,,,,,,,,,,,,,60.34944790019654,60.34944790019654,60.34944790019654,60.34944790019654,60.34944790019654,p,0.09465149999596179,60.454909100197256,60.454909100197256,60.85771260014735,60.85771260014735,,,,,,,,,,,,,,,,,,,,,,,,,,,,,,,,,,,,,,,,sdfsd,weeew,2023-04-13_19h28.23.764,bandit task,2022.2.5,144.84650623637756,
63,0,63,0,,,,,,,,,,,,,,,,,60.85771260014735,60.85771260014735,60.85771260014735,60.85771260014735,60.85771260014735,q,0.11751609994098544,60.984037100104615,60.984037100104615,,,,,,,,,,,,,,,,,,,,,,,,,,,,,,,,,,,,,,,,,,sdfsd,weeew,2023-04-13_19h28.23.764,bandit task,2022.2.5,144.84650623637756,
64,0,64,0,,,,,,,,,,,,,,,,,61.39165130001493,61.39165130001493,61.39165130001493,61.39165130001493,61.39165130001493,o,0.10541409975849092,61.51100110006519,61.51100110006519,,,,,,,,,,,,,,,,,,,,,,,,,,,,,,,,,,,,,,,,,,sdfsd,weeew,2023-04-13_19h28.23.764,bandit task,2022.2.5,144.84650623637756,
65,0,65,0,,,,,,,,,,,,,,,,,61.918882800033316,61.918882800033316,61.918882800033316,61.918882800033316,61.918882800033316,w,0.09155180002562702,62.0241741000209,62.0241741000209,62.42640530015342,62.42640530015342,,,,,,,,,,,,,,,,,,,,,,,,,,,,,,,,,,,,,,,,sdfsd,weeew,2023-04-13_19h28.23.764,bandit task,2022.2.5,144.84650623637756,
66,0,66,0,,,,,,,,,,,,,,,,,62.42640530015342,62.42640530015342,62.42640530015342,62.42640530015342,62.42640530015342,p,0.025227000005543232,62.4626661001239,62.4626661001239,,,,,,,,,,,,,,,,,,,,,,,,,,,,,,,,,,,,,,,,,,sdfsd,weeew,2023-04-13_19h28.23.764,bandit task,2022.2.5,144.84650623637756,
67,0,67,0,,,,,,,,,,,,,,,,,62.87022370006889,62.87022370006889,62.87022370006889,62.87022370006889,62.87022370006889,q,0.04993399977684021,62.93774020019919,62.93774020019919,,,,,,,,,,,,,,,,,,,,,,,,,,,,,,,,,,,,,,,,,,sdfsd,weeew,2023-04-13_19h28.23.764,bandit task,2022.2.5,144.84650623637756,
68,0,68,0,,,,,,,,,,,,,,,,,63.343164700083435,63.343164700083435,63.343164700083435,63.343164700083435,63.343164700083435,o,0.006034899968653917,63.35825749998912,63.35825749998912,,,,,,,,,,,,,,,,,,,,,,,,,,,,,,,,,,,,,,,,,,sdfsd,weeew,2023-04-13_19h28.23.764,bandit task,2022.2.5,144.84650623637756,
69,0,69,0,,,,,,,,,,,,,,,,,63.76623470010236,63.76623470010236,63.76623470010236,63.76623470010236,63.76623470010236,p,0.39362529991194606,64.16971460008062,64.16971460008062,64.57180760009214,64.57180760009214,,,,,,,,,,,,,,,,,,,,,,,,,,,,,,,,,,,,,,,,sdfsd,weeew,2023-04-13_19h28.23.764,bandit task,2022.2.5,144.84650623637756,
70,0,70,0,,,,,,,,,,,,,,,,,64.57180760009214,64.57180760009214,64.57180760009214,64.57180760009214,64.57180760009214,q,0.07068890007212758,64.65059010009281,64.65059010009281,,,,,,,,,,,,,,,,,,,,,,,,,,,,,,,,,,,,,,,,,,sdfsd,weeew,2023-04-13_19h28.23.764,bandit task,2022.2.5,144.84650623637756,
71,0,71,0,,,,,,,,,,,,,,,,,65.05781970010139,65.05781970010139,65.05781970010139,65.05781970010139,65.05781970010139,w,0.0009059999138116837,65.07304200017825,65.07304200017825,65.47546210000291,65.47546210000291,,,,,,,,,,,,,,,,,,,,,,,,,,,,,,,,,,,,,,,,sdfsd,weeew,2023-04-13_19h28.23.764,bandit task,2022.2.5,144.84650623637756,
72,0,72,0,,,,,,,,,,,,,,,,,65.47546210000291,65.47546210000291,65.47546210000291,65.47546210000291,65.47546210000291,o,0.01324819982983172,65.50172890000977,65.50172890000977,,,,,,,,,,,,,,,,,,,,,,,,,,,,,,,,,,,,,,,,,,sdfsd,weeew,2023-04-13_19h28.23.764,bandit task,2022.2.5,144.84650623637756,
73,0,73,0,,,,,,,,,,,,,,,,,65.90599740017205,65.90599740017205,65.90599740017205,65.90599740017205,65.90599740017205,p,0.04268669988960028,65.96506249997765,65.96506249997765,,,,,,,,,,,,,,,,,,,,,,,,,,,,,,,,,,,,,,,,,,sdfsd,weeew,2023-04-13_19h28.23.764,bandit task,2022.2.5,144.84650623637756,
74,0,74,0,,,,,,,,,,,,,,,,,66.37062190007418,66.37062190007418,66.37062190007418,66.37062190007418,66.37062190007418,q,0.014314999803900719,66.39483800018206,66.39483800018206,,,,,,,,,,,,,,,,,,,,,,,,,,,,,,,,,,,,,,,,,,sdfsd,weeew,2023-04-13_19h28.23.764,bandit task,2022.2.5,144.84650623637756,
75,0,75,0,,,,,,,,,,,,,,,,,66.80065720016137,66.80065720016137,66.80065720016137,66.80065720016137,66.80065720016137,w,0.438846199773252,67.25731870019808,67.25731870019808,,,,,,,,,,,,,,,,,,,,,,,,,,,,,,,,,,,,,,,,,,sdfsd,weeew,2023-04-13_19h28.23.764,bandit task,2022.2.5,144.84650623637756,
76,0,76,0,,,,,,,,,,,,,,,,,67.67046400019899,67.67046400019899,67.67046400019899,67.67046400019899,67.67046400019899,q,0.3953531999140978,68.0787827000022,68.0787827000022,68.48151540011168,68.48151540011168,,,,,,,,,,,,,,,,,,,,,,,,,,,,,,,,,,,,,,,,sdfsd,weeew,2023-04-13_19h28.23.764,bandit task,2022.2.5,144.84650623637756,
77,0,77,0,,,,,,,,,,,,,,,,,68.48151540011168,68.48151540011168,68.48151540011168,68.48151540011168,68.48151540011168,o,0.013962699798867106,68.50448350002989,68.50448350002989,,,,,,,,,,,,,,,,,,,,,,,,,,,,,,,,,,,,,,,,,,sdfsd,weeew,2023-04-13_19h28.23.764,bandit task,2022.2.5,144.84650623637756,
78,0,78,0,,,,,,,,,,,,,,,,,68.91282770014368,68.91282770014368,68.91282770014368,68.91282770014368,68.91282770014368,p,0.38110269978642464,69.30471660010517,69.30471660010517,,,,,,,,,,,,,,,,,,,,,,,,,,,,,,,,,,,,,,,,,,sdfsd,weeew,2023-04-13_19h28.23.764,bandit task,2022.2.5,144.84650623637756,
79,0,79,0,0,0,0,0,,,,,,,,,,,,,69.71088260016404,69.71088260016404,69.71088260016404,69.71088260016404,69.71088260016404,q,0.041185899870470166,69.76240220014006,69.76240220014006,,,70.17531289998442,70.17531289998442,space,1.706426799762994,,,,,,,,,,,,,,,,,,,,,,,,,,,,,,,,,,,,sdfsd,weeew,2023-04-13_19h28.23.764,bandit task,2022.2.5,144.84650623637756,
79,0,79,0,,,,,,,,,,,,,,,,,,,,,,,,,,,,,,,,,,,,,,,,,,,,,,,,,,,,,,,,,,,,,,,,,,,sdfsd,weeew,2023-04-13_19h28.23.764,bandit task,2022.2.5,144.84650623637756,
80,0,80,0,,,,,,,,,,,,,,,,,71.8922082001809,71.8922082001809,71.8922082001809,71.8922082001809,71.8922082001809,q,0.3610594996716827,72.26776790013537,72.26776790013537,,,,,,,,,,,,,,,,,,,,,,,,,,,,,,,,,,,,,,,,,,sdfsd,weeew,2023-04-13_19h28.23.764,bandit task,2022.2.5,144.84650623637756,
81,0,81,0,,,,,,,,,,,,,,,,,72.67600290011615,72.67600290011615,72.67600290011615,72.67600290011615,72.67600290011615,w,0.015330600086599588,72.70808170014061,72.70808170014061,,,,,,,,,,,,,,,,,,,,,,,,,,,,,,,,,,,,,,,,,,sdfsd,weeew,2023-04-13_19h28.23.764,bandit task,2022.2.5,144.84650623637756,
82,0,82,0,,,,,,,,,,,,,,,,,73.11352610005997,73.11352610005997,73.11352610005997,73.11352610005997,73.11352610005997,o,0.060175399761646986,73.18633499997668,73.18633499997668,,,,,,,,,,,,,,,,,,,,,,,,,,,,,,,,,,,,,,,,,,sdfsd,weeew,2023-04-13_19h28.23.764,bandit task,2022.2.5,144.84650623637756,
83,0,83,0,,,,,,,,,,,,,,,,,73.5923801001627,73.5923801001627,73.5923801001627,73.5923801001627,73.5923801001627,q,0.04870279994793236,73.65098690008745,73.65098690008745,,,,,,,,,,,,,,,,,,,,,,,,,,,,,,,,,,,,,,,,,,sdfsd,weeew,2023-04-13_19h28.23.764,bandit task,2022.2.5,144.84650623637756,
84,0,84,0,,,,,,,,,,,,,,,,,74.05813790019602,74.05813790019602,74.05813790019602,74.05813790019602,74.05813790019602,p,0.013032499700784683,74.07902440009639,74.07902440009639,74.48167950008065,74.48167950008065,,,,,,,,,,,,,,,,,,,,,,,,,,,,,,,,,,,,,,,,sdfsd,weeew,2023-04-13_19h28.23.764,bandit task,2022.2.5,144.84650623637756,
85,0,85,0,,,,,,,,,,,,,,,,,74.48167950008065,74.48167950008065,74.48167950008065,74.48167950008065,74.48167950008065,o,0.35107639990746975,74.84401820017956,74.84401820017956,,,,,,,,,,,,,,,,,,,,,,,,,,,,,,,,,,,,,,,,,,sdfsd,weeew,2023-04-13_19h28.23.764,bandit task,2022.2.5,144.84650623637756,
86,0,86,0,,,,,,,,,,,,,,,,,75.25246460014023,75.25246460014023,75.25246460014023,75.25246460014023,75.25246460014023,q,0.05612870003096759,75.32226849999279,75.32226849999279,75.72512409999035,75.72512409999035,,,,,,,,,,,,,,,,,,,,,,,,,,,,,,,,,,,,,,,,sdfsd,weeew,2023-04-13_19h28.23.764,bandit task,2022.2.5,144.84650623637756,
87,0,87,0,,,,,,,,,,,,,,,,,75.72512409999035,75.72512409999035,75.72512409999035,75.72512409999035,75.72512409999035,w,0.38180279987864196,76.11729860003106,76.11729860003106,,,,,,,,,,,,,,,,,,,,,,,,,,,,,,,,,,,,,,,,,,sdfsd,weeew,2023-04-13_19h28.23.764,bandit task,2022.2.5,144.84650623637756,
88,0,88,0,,,,,,,,,,,,,,,,,76.5237814001739,76.5237814001739,76.5237814001739,76.5237814001739,76.5237814001739,p,0.04096339992247522,76.57782710017636,76.57782710017636,,,,,,,,,,,,,,,,,,,,,,,,,,,,,,,,,,,,,,,,,,sdfsd,weeew,2023-04-13_19h28.23.764,bandit task,2022.2.5,144.84650623637756,
89,0,89,0,,,,,,,,,,,,,,,,,76.9821647000499,76.9821647000499,76.9821647000499,76.9821647000499,76.9821647000499,q,0.04942029993981123,77.04437860008329,77.04437860008329,77.44719370012172,77.44719370012172,,,,,,,,,,,,,,,,,,,,,,,,,,,,,,,,,,,,,,,,sdfsd,weeew,2023-04-13_19h28.23.764,bandit task,2022.2.5,144.84650623637756,
90,0,90,0,,,,,,,,,,,,,,,,,77.44719370012172,77.44719370012172,77.44719370012172,77.44719370012172,77.44719370012172,o,0.025059999898076057,77.48322840011679,77.48322840011679,,,,,,,,,,,,,,,,,,,,,,,,,,,,,,,,,,,,,,,,,,sdfsd,weeew,2023-04-13_19h28.23.764,bandit task,2022.2.5,144.84650623637756,
91,0,91,0,,,,,,,,,,,,,,,,,77.89127170015126,77.89127170015126,77.89127170015126,77.89127170015126,77.89127170015126,w,0.012661099899560213,77.91417130012996,77.91417130012996,,,,,,,,,,,,,,,,,,,,,,,,,,,,,,,,,,,,,,,,,,sdfsd,weeew,2023-04-13_19h28.23.764,bandit task,2022.2.5,144.84650623637756,
92,0,92,0,,,,,,,,,,,,,,,,,78.321512500057,78.321512500057,78.321512500057,78.321512500057,78.321512500057,p,0.037854999769479036,78.37194130010903,78.37194130010903,78.77341899997555,78.77341899997555,,,,,,,,,,,,,,,,,,,,,,,,,,,,,,,,,,,,,,,,sdfsd,weeew,2023-04-13_19h28.23.764,bandit task,2022.2.5,144.84650623637756,
93,0,93,0,,,,,,,,,,,,,,,,,78.77341899997555,78.77341899997555,78.77341899997555,78.77341899997555,78.77341899997555,q,0.004731999943032861,78.78845520014875,78.78845520014875,79.18978110002354,79.18978110002354,,,,,,,,,,,,,,,,,,,,,,,,,,,,,,,,,,,,,,,,sdfsd,weeew,2023-04-13_19h28.23.764,bandit task,2022.2.5,144.84650623637756,
94,0,94,0,,,,,,,,,,,,,,,,,79.18978110002354,79.18978110002354,79.18978110002354,79.18978110002354,79.18978110002354,w,0.41161299985833466,79.61433790018782,79.61433790018782,80.01730710011907,80.01730710011907,,,,,,,,,,,,,,,,,,,,,,,,,,,,,,,,,,,,,,,,sdfsd,weeew,2023-04-13_19h28.23.764,bandit task,2022.2.5,144.84650623637756,
95,0,95,0,,,,,,,,,,,,,,,,,80.01730710011907,80.01730710011907,80.01730710011907,80.01730710011907,80.01730710011907,p,0.05130939977243543,80.08294590003788,80.08294590003788,,,,,,,,,,,,,,,,,,,,,,,,,,,,,,,,,,,,,,,,,,sdfsd,weeew,2023-04-13_19h28.23.764,bandit task,2022.2.5,144.84650623637756,
96,0,96,0,,,,,,,,,,,,,,,,,80.488191800192,80.488191800192,80.488191800192,80.488191800192,80.488191800192,q,0.055710099870339036,80.55346360011026,80.55346360011026,,,,,,,,,,,,,,,,,,,,,,,,,,,,,,,,,,,,,,,,,,sdfsd,weeew,2023-04-13_19h28.23.764,bandit task,2022.2.5,144.84650623637756,
97,0,97,0,,,,,,,,,,,,,,,,,80.96119710011408,80.96119710011408,80.96119710011408,80.96119710011408,80.96119710011408,w,0.34834209992550313,81.32217340008356,81.32217340008356,81.72489359998144,81.72489359998144,,,,,,,,,,,,,,,,,,,,,,,,,,,,,,,,,,,,,,,,sdfsd,weeew,2023-04-13_19h28.23.764,bandit task,2022.2.5,144.84650623637756,
98,0,98,0,,,,,,,,,,,,,,,,,81.72489359998144,81.72489359998144,81.72489359998144,81.72489359998144,81.72489359998144,q,0.375270799966529,82.11361670005135,82.11361670005135,82.5169466000516,82.5169466000516,,,,,,,,,,,,,,,,,,,,,,,,,,,,,,,,,,,,,,,,sdfsd,weeew,2023-04-13_19h28.23.764,bandit task,2022.2.5,144.84650623637756,
99,0,99,0,,,,,,,,,,,,,,,,,82.5169466000516,82.5169466000516,82.5169466000516,82.5169466000516,82.5169466000516,o,0.08014779980294406,82.61041610012762,82.61041610012762,,,,,,,,,,,,,,,,,,,,,,,,,,,,,,,,,,,,,,,,,,sdfsd,weeew,2023-04-13_19h28.23.764,bandit task,2022.2.5,144.84650623637756,
100,0,100,0,,,,,,,,,,,,,,,,,83.0169440000318,83.0169440000318,83.0169440000318,83.0169440000318,83.0169440000318,w,0.024893999798223376,83.0539971999824,83.0539971999824,,,,,,,,,,,,,,,,,,,,,,,,,,,,,,,,,,,,,,,,,,sdfsd,weeew,2023-04-13_19h28.23.764,bandit task,2022.2.5,144.84650623637756,
101,0,101,0,,,,,,,,,,,,,,,,,83.46086810017005,83.46086810017005,83.46086810017005,83.46086810017005,83.46086810017005,p,0.36056469986215234,83.82969210017473,83.82969210017473,84.23164630006067,84.23164630006067,,,,,,,,,,,,,,,,,,,,,,,,,,,,,,,,,,,,,,,,sdfsd,weeew,2023-04-13_19h28.23.764,bandit task,2022.2.5,144.84650623637756,
102,0,102,0,,,,,,,,,,,,,,,,,84.23164630006067,84.23164630006067,84.23164630006067,84.23164630006067,84.23164630006067,q,0.08402859978377819,84.32484350004233,84.32484350004233,,,,,,,,,,,,,,,,,,,,,,,,,,,,,,,,,,,,,,,,,,sdfsd,weeew,2023-04-13_19h28.23.764,bandit task,2022.2.5,144.84650623637756,
103,0,103,0,,,,,,,,,,,,,,,,,84.73168279998936,84.73168279998936,84.73168279998936,84.73168279998936,84.73168279998936,w,0.45017129997722805,85.19092530012131,85.19092530012131,85.5925622000359,85.5925622000359,,,,,,,,,,,,,,,,,,,,,,,,,,,,,,,,,,,,,,,,sdfsd,weeew,2023-04-13_19h28.23.764,bandit task,2022.2.5,144.84650623637756,
104,0,104,0,,,,,,,,,,,,,,,,,85.5925622000359,85.5925622000359,85.5925622000359,85.5925622000359,85.5925622000359,p,0.02150199981406331,85.62166539998725,85.62166539998725,,,,,,,,,,,,,,,,,,,,,,,,,,,,,,,,,,,,,,,,,,sdfsd,weeew,2023-04-13_19h28.23.764,bandit task,2022.2.5,144.84650623637756,
105,0,105,0,,,,,,,,,,,,,,,,,86.03005220019259,86.03005220019259,86.03005220019259,86.03005220019259,86.03005220019259,q,0.0015370999462902546,86.04495810018852,86.04495810018852,86.44731199997477,86.44731199997477,,,,,,,,,,,,,,,,,,,,,,,,,,,,,,,,,,,,,,,,sdfsd,weeew,2023-04-13_19h28.23.764,bandit task,2022.2.5,144.84650623637756,
106,0,106,0,,,,,,,,,,,,,,,,,86.44731199997477,86.44731199997477,86.44731199997477,86.44731199997477,86.44731199997477,w,0.2846337999217212,86.74276170018129,86.74276170018129,,,,,,,,,,,,,,,,,,,,,,,,,,,,,,,,,,,,,,,,,,sdfsd,weeew,2023-04-13_19h28.23.764,bandit task,2022.2.5,144.84650623637756,
107,0,107,0,,,,,,,,,,,,,,,,,87.14788700011559,87.14788700011559,87.14788700011559,87.14788700011559,87.14788700011559,p,0.0350811998359859,87.19139760010876,87.19139760010876,87.59397729998454,87.59397729998454,,,,,,,,,,,,,,,,,,,,,,,,,,,,,,,,,,,,,,,,sdfsd,weeew,2023-04-13_19h28.23.764,bandit task,2022.2.5,144.84650623637756,
108,0,108,0,,,,,,,,,,,,,,,,,87.59397729998454,87.59397729998454,87.59397729998454,87.59397729998454,87.59397729998454,o,0.3542567999102175,87.96176580013707,87.96176580013707,88.36379350000061,88.36379350000061,,,,,,,,,,,,,,,,,,,,,,,,,,,,,,,,,,,,,,,,sdfsd,weeew,2023-04-13_19h28.23.764,bandit task,2022.2.5,144.84650623637756,
109,0,109,0,,,,,,,,,,,,,,,,,88.36379350000061,88.36379350000061,88.36379350000061,88.36379350000061,88.36379350000061,p,0.32939719990827143,88.7047553001903,88.7047553001903,89.10722180013545,89.10722180013545,,,,,,,,,,,,,,,,,,,,,,,,,,,,,,,,,,,,,,,,sdfsd,weeew,2023-04-13_19h28.23.764,bandit task,2022.2.5,144.84650623637756,
110,0,110,0,,,,,,,,,,,,,,,,,89.10722180013545,89.10722180013545,89.10722180013545,89.10722180013545,89.10722180013545,q,0.05096419993788004,89.17089160019532,89.17089160019532,,,,,,,,,,,,,,,,,,,,,,,,,,,,,,,,,,,,,,,,,,sdfsd,weeew,2023-04-13_19h28.23.764,bandit task,2022.2.5,144.84650623637756,
111,0,111,0,,,,,,,,,,,,,,,,,89.57908400008455,89.57908400008455,89.57908400008455,89.57908400008455,89.57908400008455,w,0.35919909994117916,89.94870480010286,89.94870480010286,,,,,,,,,,,,,,,,,,,,,,,,,,,,,,,,,,,,,,,,,,sdfsd,weeew,2023-04-13_19h28.23.764,bandit task,2022.2.5,144.84650623637756,
112,0,112,0,,,,,,,,,,,,,,,,,90.35663800011389,90.35663800011389,90.35663800011389,90.35663800011389,90.35663800011389,p,0.027963999891653657,90.39148240000941,90.39148240000941,90.794095300138,90.794095300138,,,,,,,,,,,,,,,,,,,,,,,,,,,,,,,,,,,,,,,,sdfsd,weeew,2023-04-13_19h28.23.764,bandit task,2022.2.5,144.84650623637756,
113,0,113,0,,,,,,,,,,,,,,,,,90.794095300138,90.794095300138,90.794095300138,90.794095300138,90.794095300138,o,0.34645069972611964,91.1519640001934,91.1519640001934,,,,,,,,,,,,,,,,,,,,,,,,,,,,,,,,,,,,,,,,,,sdfsd,weeew,2023-04-13_19h28.23.764,bandit task,2022.2.5,144.84650623637756,
114,0,114,0,,,,,,,,,,,,,,,,,91.55817080009729,91.55817080009729,91.55817080009729,91.55817080009729,91.55817080009729,p,0.40315269981510937,91.97525000013411,91.97525000013411,92.3776072000619,92.3776072000619,,,,,,,,,,,,,,,,,,,,,,,,,,,,,,,,,,,,,,,,sdfsd,weeew,2023-04-13_19h28.23.764,bandit task,2022.2.5,144.84650623637756,
115,0,115,0,,,,,,,,,,,,,,,,,92.3776072000619,92.3776072000619,92.3776072000619,92.3776072000619,92.3776072000619,q,0.1100533998105675,92.4974795000162,92.4974795000162,,,,,,,,,,,,,,,,,,,,,,,,,,,,,,,,,,,,,,,,,,sdfsd,weeew,2023-04-13_19h28.23.764,bandit task,2022.2.5,144.84650623637756,
116,0,116,0,,,,,,,,,,,,,,,,,92.9055719000753,92.9055719000753,92.9055719000753,92.9055719000753,92.9055719000753,q,0.17996169975958765,93.09455010015517,93.09455010015517,,,,,,,,,,,,,,,,,,,,,,,,,,,,,,,,,,,,,,,,,,sdfsd,weeew,2023-04-13_19h28.23.764,bandit task,2022.2.5,144.84650623637756,
117,0,117,0,,,,,,,,,,,,,,,,,93.50420660013333,93.50420660013333,93.50420660013333,93.50420660013333,93.50420660013333,p,0.14194649993442,93.65653230017051,93.65653230017051,,,,,,,,,,,,,,,,,,,,,,,,,,,,,,,,,,,,,,,,,,sdfsd,weeew,2023-04-13_19h28.23.764,bandit task,2022.2.5,144.84650623637756,
118,0,118,0,,,,,,,,,,,,,,,,,94.06556240003556,94.06556240003556,94.06556240003556,94.06556240003556,94.06556240003556,q,0.17505269986577332,94.25554550020024,94.25554550020024,,,,,,,,,,,,,,,,,,,,,,,,,,,,,,,,,,,,,,,,,,sdfsd,weeew,2023-04-13_19h28.23.764,bandit task,2022.2.5,144.84650623637756,
119,0,119,0,,,,,,,,,,,,,,,,,94.66270440001972,94.66270440001972,94.66270440001972,94.66270440001972,94.66270440001972,o,0.18208609987050295,94.85737340012565,94.85737340012565,95.25928870006464,95.25928870006464,,,,,,,,,,,,,,,,,,,,,,,,,,,,,,,,,,,,,,,,sdfsd,weeew,2023-04-13_19h28.23.764,bandit task,2022.2.5,144.84650623637756,
120,0,120,0,,,,,,,,,,,,,,,,,95.25928870006464,95.25928870006464,95.25928870006464,95.25928870006464,95.25928870006464,w,0.21236159978434443,95.48323130002245,95.48323130002245,95.88514070003293,95.88514070003293,,,,,,,,,,,,,,,,,,,,,,,,,,,,,,,,,,,,,,,,sdfsd,weeew,2023-04-13_19h28.23.764,bandit task,2022.2.5,144.84650623637756,
121,0,121,0,,,,,,,,,,,,,,,,,95.88514070003293,95.88514070003293,95.88514070003293,95.88514070003293,95.88514070003293,p,0.15869840001687407,96.05485219997354,96.05485219997354,,,,,,,,,,,,,,,,,,,,,,,,,,,,,,,,,,,,,,,,,,sdfsd,weeew,2023-04-13_19h28.23.764,bandit task,2022.2.5,144.84650623637756,
122,0,122,0,,,,,,,,,,,,,,,,,96.46059809997678,96.46059809997678,96.46059809997678,96.46059809997678,96.46059809997678,q,0.1532844000030309,96.62181170005351,96.62181170005351,,,,,,,,,,,,,,,,,,,,,,,,,,,,,,,,,,,,,,,,,,sdfsd,weeew,2023-04-13_19h28.23.764,bandit task,2022.2.5,144.84650623637756,
123,0,123,0,,,,,,,,,,,,,,,,,97.03037700010464,97.03037700010464,97.03037700010464,97.03037700010464,97.03037700010464,p,0.17470879992470145,97.21917300019413,97.21917300019413,,,,,,,,,,,,,,,,,,,,,,,,,,,,,,,,,,,,,,,,,,sdfsd,weeew,2023-04-13_19h28.23.764,bandit task,2022.2.5,144.84650623637756,
124,0,124,0,,,,,,,,,,,,,,,,,97.62724920012988,97.62724920012988,97.62724920012988,97.62724920012988,97.62724920012988,q,0.1569618999492377,97.79513099999167,97.79513099999167,98.19657899998128,98.19657899998128,,,,,,,,,,,,,,,,,,,,,,,,,,,,,,,,,,,,,,,,sdfsd,weeew,2023-04-13_19h28.23.764,bandit task,2022.2.5,144.84650623637756,
125,0,125,0,,,,,,,,,,,,,,,,,98.19657899998128,98.19657899998128,98.19657899998128,98.19657899998128,98.19657899998128,p,0.07179729989729822,98.2823398001492,98.2823398001492,,,,,,,,,,,,,,,,,,,,,,,,,,,,,,,,,,,,,,,,,,sdfsd,weeew,2023-04-13_19h28.23.764,bandit task,2022.2.5,144.84650623637756,
126,0,126,0,,,,,,,,,,,,,,,,,98.69061679998413,98.69061679998413,98.69061679998413,98.69061679998413,98.69061679998413,q,0.34629080002196133,99.04619390005246,99.04619390005246,,,,,,,,,,,,,,,,,,,,,,,,,,,,,,,,,,,,,,,,,,sdfsd,weeew,2023-04-13_19h28.23.764,bandit task,2022.2.5,144.84650623637756,
127,0,127,0,,,,,,,,,,,,,,,,,99.4540469001513,99.4540469001513,99.4540469001513,99.4540469001513,99.4540469001513,p,0.18887669988907874,99.65579780004919,99.65579780004919,100.05765209998935,100.05765209998935,,,,,,,,,,,,,,,,,,,,,,,,,,,,,,,,,,,,,,,,sdfsd,weeew,2023-04-13_19h28.23.764,bandit task,2022.2.5,144.84650623637756,
128,0,128,0,,,,,,,,,,,,,,,,,100.05765209998935,100.05765209998935,100.05765209998935,100.05765209998935,100.05765209998935,w,0.11327899992465973,100.18679639999755,100.18679639999755,,,,,,,,,,,,,,,,,,,,,,,,,,,,,,,,,,,,,,,,,,sdfsd,weeew,2023-04-13_19h28.23.764,bandit task,2022.2.5,144.84650623637756,
129,0,129,0,,,,,,,,,,,,,,,,,100.5929040000774,100.5929040000774,100.5929040000774,100.5929040000774,100.5929040000774,o,0.13875979976728559,100.74032970005646,100.74032970005646,,,,,,,,,,,,,,,,,,,,,,,,,,,,,,,,,,,,,,,,,,sdfsd,weeew,2023-04-13_19h28.23.764,bandit task,2022.2.5,144.84650623637756,
130,0,130,0,,,,,,,,,,,,,,,,,101.14796680002473,101.14796680002473,101.14796680002473,101.14796680002473,101.14796680002473,q,0.16505439998582006,101.32361500011757,101.32361500011757,,,,,,,,,,,,,,,,,,,,,,,,,,,,,,,,,,,,,,,,,,sdfsd,weeew,2023-04-13_19h28.23.764,bandit task,2022.2.5,144.84650623637756,
131,0,131,0,,,,,,,,,,,,,,,,,101.7314763001632,101.7314763001632,101.7314763001632,101.7314763001632,101.7314763001632,p,0.11750659998506308,101.85798610001802,101.85798610001802,,,,,,,,,,,,,,,,,,,,,,,,,,,,,,,,,,,,,,,,,,sdfsd,weeew,2023-04-13_19h28.23.764,bandit task,2022.2.5,144.84650623637756,
132,0,132,0,,,,,,,,,,,,,,,,,102.26637720013969,102.26637720013969,102.26637720013969,102.26637720013969,102.26637720013969,q,0.11565339984372258,102.39623970002867,102.39623970002867,,,,,,,,,,,,,,,,,,,,,,,,,,,,,,,,,,,,,,,,,,sdfsd,weeew,2023-04-13_19h28.23.764,bandit task,2022.2.5,144.84650623637756,
133,0,133,0,,,,,,,,,,,,,,,,,102.80084490007721,102.80084490007721,102.80084490007721,102.80084490007721,102.80084490007721,o,0.18067599972710013,102.99017550004646,102.99017550004646,,,,,,,,,,,,,,,,,,,,,,,,,,,,,,,,,,,,,,,,,,sdfsd,weeew,2023-04-13_19h28.23.764,bandit task,2022.2.5,144.84650623637756,
134,0,134,0,,,,,,,,,,,,,,,,,103.39787230012007,103.39787230012007,103.39787230012007,103.39787230012007,103.39787230012007,w,0.11102189985103905,103.51760490005836,103.51760490005836,,,,,,,,,,,,,,,,,,,,,,,,,,,,,,,,,,,,,,,,,,sdfsd,weeew,2023-04-13_19h28.23.764,bandit task,2022.2.5,144.84650623637756,
135,0,135,0,,,,,,,,,,,,,,,,,103.92657800018787,103.92657800018787,103.92657800018787,103.92657800018787,103.92657800018787,p,0.17262759990990162,104.10831040004268,104.10831040004268,,,,,,,,,,,,,,,,,,,,,,,,,,,,,,,,,,,,,,,,,,sdfsd,weeew,2023-04-13_19h28.23.764,bandit task,2022.2.5,144.84650623637756,
136,0,136,0,,,,,,,,,,,,,,,,,104.51613180013373,104.51613180013373,104.51613180013373,104.51613180013373,104.51613180013373,q,0.11179149989038706,104.63710040017031,104.63710040017031,,,,,,,,,,,,,,,,,,,,,,,,,,,,,,,,,,,,,,,,,,sdfsd,weeew,2023-04-13_19h28.23.764,bandit task,2022.2.5,144.84650623637756,
137,0,137,0,,,,,,,,,,,,,,,,,105.04439160018228,105.04439160018228,105.04439160018228,105.04439160018228,105.04439160018228,o,0.19787539984099567,105.25445200013928,105.25445200013928,,,,,,,,,,,,,,,,,,,,,,,,,,,,,,,,,,,,,,,,,,sdfsd,weeew,2023-04-13_19h28.23.764,bandit task,2022.2.5,144.84650623637756,
138,0,138,0,,,,,,,,,,,,,,,,,105.66187230008654,105.66187230008654,105.66187230008654,105.66187230008654,105.66187230008654,w,0.09088089969009161,105.76746960007586,105.76746960007586,106.16898400010541,106.16898400010541,,,,,,,,,,,,,,,,,,,,,,,,,,,,,,,,,,,,,,,,sdfsd,weeew,2023-04-13_19h28.23.764,bandit task,2022.2.5,144.84650623637756,
139,0,139,0,,,,,,,,,,,,,,,,,106.16898400010541,106.16898400010541,106.16898400010541,106.16898400010541,106.16898400010541,p,0.13010969990864396,106.308712300146,106.308712300146,106.71046010009013,106.71046010009013,,,,,,,,,,,,,,,,,,,,,,,,,,,,,,,,,,,,,,,,sdfsd,weeew,2023-04-13_19h28.23.764,bandit task,2022.2.5,144.84650623637756,
140,0,140,0,,,,,,,,,,,,,,,,,106.71046010009013,106.71046010009013,106.71046010009013,106.71046010009013,106.71046010009013,q,0.14767699991352856,106.87146529997699,106.87146529997699,107.27331480011344,107.27331480011344,,,,,,,,,,,,,,,,,,,,,,,,,,,,,,,,,,,,,,,,sdfsd,weeew,2023-04-13_19h28.23.764,bandit task,2022.2.5,144.84650623637756,
141,0,141,0,,,,,,,,,,,,,,,,,107.27331480011344,107.27331480011344,107.27331480011344,107.27331480011344,107.27331480011344,o,0.13381389994174242,107.41891370015219,107.41891370015219,107.8216789001599,107.8216789001599,,,,,,,,,,,,,,,,,,,,,,,,,,,,,,,,,,,,,,,,sdfsd,weeew,2023-04-13_19h28.23.764,bandit task,2022.2.5,144.84650623637756,
142,0,142,0,,,,,,,,,,,,,,,,,107.8216789001599,107.8216789001599,107.8216789001599,107.8216789001599,107.8216789001599,w,0.07992679998278618,107.91493490012363,107.91493490012363,,,,,,,,,,,,,,,,,,,,,,,,,,,,,,,,,,,,,,,,,,sdfsd,weeew,2023-04-13_19h28.23.764,bandit task,2022.2.5,144.84650623637756,
143,0,143,0,,,,,,,,,,,,,,,,,108.32192410016432,108.32192410016432,108.32192410016432,108.32192410016432,108.32192410016432,p,0.044777899980545044,108.37908290000632,108.37908290000632,108.77973880013451,108.77973880013451,,,,,,,,,,,,,,,,,,,,,,,,,,,,,,,,,,,,,,,,sdfsd,weeew,2023-04-13_19h28.23.764,bandit task,2022.2.5,144.84650623637756,
144,0,144,0,,,,,,,,,,,,,,,,,108.77973880013451,108.77973880013451,108.77973880013451,108.77973880013451,108.77973880013451,q,0.06330629996955395,108.85754800005816,108.85754800005816,109.25929740001447,109.25929740001447,,,,,,,,,,,,,,,,,,,,,,,,,,,,,,,,,,,,,,,,sdfsd,weeew,2023-04-13_19h28.23.764,bandit task,2022.2.5,144.84650623637756,
145,0,145,0,,,,,,,,,,,,,,,,,109.25929740001447,109.25929740001447,109.25929740001447,109.25929740001447,109.25929740001447,o,0.08321519987657666,109.35153410001658,109.35153410001658,,,,,,,,,,,,,,,,,,,,,,,,,,,,,,,,,,,,,,,,,,sdfsd,weeew,2023-04-13_19h28.23.764,bandit task,2022.2.5,144.84650623637756,
146,0,146,0,,,,,,,,,,,,,,,,,109.75886920001358,109.75886920001358,109.75886920001358,109.75886920001358,109.75886920001358,w,0.06784949987195432,109.83753990009427,109.83753990009427,,,,,,,,,,,,,,,,,,,,,,,,,,,,,,,,,,,,,,,,,,sdfsd,weeew,2023-04-13_19h28.23.764,bandit task,2022.2.5,144.84650623637756,
147,0,147,0,,,,,,,,,,,,,,,,,110.24585960013792,110.24585960013792,110.24585960013792,110.24585960013792,110.24585960013792,p,0.0736464997753501,110.33031000010669,110.33031000010669,,,,,,,,,,,,,,,,,,,,,,,,,,,,,,,,,,,,,,,,,,sdfsd,weeew,2023-04-13_19h28.23.764,bandit task,2022.2.5,144.84650623637756,
148,0,148,0,,,,,,,,,,,,,,,,,110.73869110015221,110.73869110015221,110.73869110015221,110.73869110015221,110.73869110015221,q,0.004524199990555644,110.75338280014694,110.75338280014694,111.15532400016673,111.15532400016673,,,,,,,,,,,,,,,,,,,,,,,,,,,,,,,,,,,,,,,,sdfsd,weeew,2023-04-13_19h28.23.764,bandit task,2022.2.5,144.84650623637756,
149,0,149,0,,,,,,,,,,,,,,,,,111.15532400016673,111.15532400016673,111.15532400016673,111.15532400016673,111.15532400016673,o,0.04823659989051521,111.21280260011554,111.21280260011554,,,,,,,,,,,,,,,,,,,,,,,,,,,,,,,,,,,,,,,,,,sdfsd,weeew,2023-04-13_19h28.23.764,bandit task,2022.2.5,144.84650623637756,
150,0,150,0,,,,,,,,,,,,,,,,,111.62037410004996,111.62037410004996,111.62037410004996,111.62037410004996,111.62037410004996,w,0.009685299824923277,111.64180760015734,111.64180760015734,112.04396400018595,112.04396400018595,,,,,,,,,,,,,,,,,,,,,,,,,,,,,,,,,,,,,,,,sdfsd,weeew,2023-04-13_19h28.23.764,bandit task,2022.2.5,144.84650623637756,
151,0,151,0,,,,,,,,,,,,,,,,,112.04396400018595,112.04396400018595,112.04396400018595,112.04396400018595,112.04396400018595,p,0.025347599992528558,112.08050819998607,112.08050819998607,,,,,,,,,,,,,,,,,,,,,,,,,,,,,,,,,,,,,,,,,,sdfsd,weeew,2023-04-13_19h28.23.764,bandit task,2022.2.5,144.84650623637756,
152,0,152,0,,,,,,,,,,,,,,,,,112.48835470015183,112.48835470015183,112.48835470015183,112.48835470015183,112.48835470015183,q,0.015709199709817767,112.51675539999269,112.51675539999269,112.91901180008426,112.91901180008426,,,,,,,,,,,,,,,,,,,,,,,,,,,,,,,,,,,,,,,,sdfsd,weeew,2023-04-13_19h28.23.764,bandit task,2022.2.5,144.84650623637756,
153,0,153,0,,,,,,,,,,,,,,,,,112.91901180008426,112.91901180008426,112.91901180008426,112.91901180008426,112.91901180008426,o,0.1661332999356091,113.09615390002728,113.09615390002728,,,,,,,,,,,,,,,,,,,,,,,,,,,,,,,,,,,,,,,,,,sdfsd,weeew,2023-04-13_19h28.23.764,bandit task,2022.2.5,144.84650623637756,
154,0,154,0,,,,,,,,,,,,,,,,,113.50235050008632,113.50235050008632,113.50235050008632,113.50235050008632,113.50235050008632,w,0.004756399895995855,113.51801350014284,113.51801350014284,,,,,,,,,,,,,,,,,,,,,,,,,,,,,,,,,,,,,,,,,,sdfsd,weeew,2023-04-13_19h28.23.764,bandit task,2022.2.5,144.84650623637756,
155,0,155,0,,,,,,,,,,,,,,,,,113.92623320012353,113.92623320012353,113.92623320012353,113.92623320012353,113.92623320012353,p,0.023331699892878532,113.96881140000187,113.96881140000187,,,,,,,,,,,,,,,,,,,,,,,,,,,,,,,,,,,,,,,,,,sdfsd,weeew,2023-04-13_19h28.23.764,bandit task,2022.2.5,144.84650623637756,
156,0,156,0,,,,,,,,,,,,,,,,,114.37144510005601,114.37144510005601,114.37144510005601,114.37144510005601,114.37144510005601,q,0.040187199832871556,114.4203620001208,114.4203620001208,114.82151440018788,114.82151440018788,,,,,,,,,,,,,,,,,,,,,,,,,,,,,,,,,,,,,,,,sdfsd,weeew,2023-04-13_19h28.23.764,bandit task,2022.2.5,144.84650623637756,
157,0,157,0,,,,,,,,,,,,,,,,,114.82151440018788,114.82151440018788,114.82151440018788,114.82151440018788,114.82151440018788,o,0.02546859998255968,114.85710200015455,114.85710200015455,115.2590962999966,115.2590962999966,,,,,,,,,,,,,,,,,,,,,,,,,,,,,,,,,,,,,,,,sdfsd,weeew,2023-04-13_19h28.23.764,bandit task,2022.2.5,144.84650623637756,
158,0,158,0,,,,,,,,,,,,,,,,,115.2590962999966,115.2590962999966,115.2590962999966,115.2590962999966,115.2590962999966,w,0.056311799911782146,115.32381460000761,115.32381460000761,,,,,,,,,,,,,,,,,,,,,,,,,,,,,,,,,,,,,,,,,,sdfsd,weeew,2023-04-13_19h28.23.764,bandit task,2022.2.5,144.84650623637756,
159,0,159,0,0,0,0,0,,,,,,,,,,,,,115.73125410010107,115.73125410010107,115.73125410010107,115.73125410010107,115.73125410010107,p,0.04892409988678992,115.78819820005447,115.78819820005447,,,116.20188150019385,116.20188150019385,space,4.077858299948275,,,,,,,,,,,,,,,,,,,,,,,,,,,,,,,,,,,,sdfsd,weeew,2023-04-13_19h28.23.764,bandit task,2022.2.5,144.84650623637756,
159,0,159,0,,,,,,,,,,,,,,,,,,,,,,,,,,,,,,,,,,,,,,,,,,,,,,,,,,,,,,,,,,,,,,,,,,,sdfsd,weeew,2023-04-13_19h28.23.764,bandit task,2022.2.5,144.84650623637756,
160,0,160,0,,,,,,,,,,,,,,,,,120.29368740017526,120.29368740017526,120.29368740017526,120.29368740017526,120.29368740017526,q,0.6304803998209536,120.93492490006611,120.93492490006611,,,,,,,,,,,,,,,,,,,,,,,,,,,,,,,,,,,,,,,,,,sdfsd,weeew,2023-04-13_19h28.23.764,bandit task,2022.2.5,144.84650623637756,
161,0,161,0,,,,,,,,,,,,,,,,,121.34267540019937,121.34267540019937,121.34267540019937,121.34267540019937,121.34267540019937,w,0.20384879992343485,121.5588424000889,121.5588424000889,121.96062480006367,121.96062480006367,,,,,,,,,,,,,,,,,,,,,,,,,,,,,,,,,,,,,,,,sdfsd,weeew,2023-04-13_19h28.23.764,bandit task,2022.2.5,144.84650623637756,
162,0,162,0,,,,,,,,,,,,,,,,,121.96062480006367,121.96062480006367,121.96062480006367,121.96062480006367,121.96062480006367,o,0.11854069982655346,122.09383640019223,122.09383640019223,122.49564530001953,122.49564530001953,,,,,,,,,,,,,,,,,,,,,,,,,,,,,,,,,,,,,,,,sdfsd,weeew,2023-04-13_19h28.23.764,bandit task,2022.2.5,144.84650623637756,
163,0,163,0,,,,,,,,,,,,,,,,,122.49564530001953,122.49564530001953,122.49564530001953,122.49564530001953,122.49564530001953,q,0.1127420999109745,122.6223852999974,122.6223852999974,,,,,,,,,,,,,,,,,,,,,,,,,,,,,,,,,,,,,,,,,,sdfsd,weeew,2023-04-13_19h28.23.764,bandit task,2022.2.5,144.84650623637756,
164,0,164,0,,,,,,,,,,,,,,,,,123.03009570017457,123.03009570017457,123.03009570017457,123.03009570017457,123.03009570017457,p,0.12971869972534478,123.17074750014581,123.17074750014581,,,,,,,,,,,,,,,,,,,,,,,,,,,,,,,,,,,,,,,,,,sdfsd,weeew,2023-04-13_19h28.23.764,bandit task,2022.2.5,144.84650623637756,
165,0,165,0,,,,,,,,,,,,,,,,,123.57850880012847,123.57850880012847,123.57850880012847,123.57850880012847,123.57850880012847,w,0.1580321998335421,123.74910450004973,123.74910450004973,,,,,,,,,,,,,,,,,,,,,,,,,,,,,,,,,,,,,,,,,,sdfsd,weeew,2023-04-13_19h28.23.764,bandit task,2022.2.5,144.84650623637756,
166,0,166,0,,,,,,,,,,,,,,,,,124.15573470015079,124.15573470015079,124.15573470015079,124.15573470015079,124.15573470015079,o,0.16693539987318218,124.33753330004402,124.33753330004402,,,,,,,,,,,,,,,,,,,,,,,,,,,,,,,,,,,,,,,,,,sdfsd,weeew,2023-04-13_19h28.23.764,bandit task,2022.2.5,144.84650623637756,
167,0,167,0,,,,,,,,,,,,,,,,,124.74597040005028,124.74597040005028,124.74597040005028,124.74597040005028,124.74597040005028,q,0.09663689997978508,124.8521641001571,124.8521641001571,,,,,,,,,,,,,,,,,,,,,,,,,,,,,,,,,,,,,,,,,,sdfsd,weeew,2023-04-13_19h28.23.764,bandit task,2022.2.5,144.84650623637756,
168,0,168,0,,,,,,,,,,,,,,,,,125.25917500001378,125.25917500001378,125.25917500001378,125.25917500001378,125.25917500001378,p,0.09537509991787374,125.36525780009106,125.36525780009106,,,,,,,,,,,,,,,,,,,,,,,,,,,,,,,,,,,,,,,,,,sdfsd,weeew,2023-04-13_19h28.23.764,bandit task,2022.2.5,144.84650623637756,
169,0,169,0,,,,,,,,,,,,,,,,,125.77339190011844,125.77339190011844,125.77339190011844,125.77339190011844,125.77339190011844,w,0.0896483997348696,125.87279420020059,125.87279420020059,126.27301430003718,126.27301430003718,,,,,,,,,,,,,,,,,,,,,,,,,,,,,,,,,,,,,,,,sdfsd,weeew,2023-04-13_19h28.23.764,bandit task,2022.2.5,144.84650623637756,
170,0,170,0,,,,,,,,,,,,,,,,,126.27301430003718,126.27301430003718,126.27301430003718,126.27301430003718,126.27301430003718,o,0.0483814999461174,126.33280920004472,126.33280920004472,,,,,,,,,,,,,,,,,,,,,,,,,,,,,,,,,,,,,,,,,,sdfsd,weeew,2023-04-13_19h28.23.764,bandit task,2022.2.5,144.84650623637756,
171,0,171,0,,,,,,,,,,,,,,,,,126.73841220000759,126.73841220000759,126.73841220000759,126.73841220000759,126.73841220000759,q,0.10900050005875528,126.85718489997089,126.85718489997089,127.2590314000845,127.2590314000845,,,,,,,,,,,,,,,,,,,,,,,,,,,,,,,,,,,,,,,,sdfsd,weeew,2023-04-13_19h28.23.764,bandit task,2022.2.5,144.84650623637756,
172,0,172,0,,,,,,,,,,,,,,,,,127.2590314000845,127.2590314000845,127.2590314000845,127.2590314000845,127.2590314000845,p,0.04650839976966381,127.31814540014602,127.31814540014602,,,,,,,,,,,,,,,,,,,,,,,,,,,,,,,,,,,,,,,,,,sdfsd,weeew,2023-04-13_19h28.23.764,bandit task,2022.2.5,144.84650623637756,
173,0,173,0,,,,,,,,,,,,,,,,,127.7252482001204,127.7252482001204,127.7252482001204,127.7252482001204,127.7252482001204,w,0.03830090002156794,127.77568379999138,127.77568379999138,,,,,,,,,,,,,,,,,,,,,,,,,,,,,,,,,,,,,,,,,,sdfsd,weeew,2023-04-13_19h28.23.764,bandit task,2022.2.5,144.84650623637756,
174,0,174,0,,,,,,,,,,,,,,,,,128.18281340016983,128.18281340016983,128.18281340016983,128.18281340016983,128.18281340016983,o,0.011706699850037694,128.20504930010065,128.20504930010065,,,,,,,,,,,,,,,,,,,,,,,,,,,,,,,,,,,,,,,,,,sdfsd,weeew,2023-04-13_19h28.23.764,bandit task,2022.2.5,144.84650623637756,
175,0,175,0,,,,,,,,,,,,,,,,,128.61357240006328,128.61357240006328,128.61357240006328,128.61357240006328,128.61357240006328,q,0.07028479990549386,128.69553420017473,128.69553420017473,,,,,,,,,,,,,,,,,,,,,,,,,,,,,,,,,,,,,,,,,,sdfsd,weeew,2023-04-13_19h28.23.764,bandit task,2022.2.5,144.84650623637756,
176,0,176,0,,,,,,,,,,,,,,,,,129.09946570009924,129.09946570009924,129.09946570009924,129.09946570009924,129.09946570009924,p,0.08673009998165071,129.1975734999869,129.1975734999869,129.5994901000522,129.5994901000522,,,,,,,,,,,,,,,,,,,,,,,,,,,,,,,,,,,,,,,,sdfsd,weeew,2023-04-13_19h28.23.764,bandit task,2022.2.5,144.84650623637756,
177,0,177,0,,,,,,,,,,,,,,,,,129.5994901000522,129.5994901000522,129.5994901000522,129.5994901000522,129.5994901000522,w,0.08222669991664588,129.69013270013966,129.69013270013966,130.09225099999458,130.09225099999458,,,,,,,,,,,,,,,,,,,,,,,,,,,,,,,,,,,,,,,,sdfsd,weeew,2023-04-13_19h28.23.764,bandit task,2022.2.5,144.84650623637756,
178,0,178,0,,,,,,,,,,,,,,,,,130.09225099999458,130.09225099999458,130.09225099999458,130.09225099999458,130.09225099999458,o,0.06203030003234744,130.16344200004824,130.16344200004824,,,,,,,,,,,,,,,,,,,,,,,,,,,,,,,,,,,,,,,,,,sdfsd,weeew,2023-04-13_19h28.23.764,bandit task,2022.2.5,144.84650623637756,
179,0,179,0,,,,,,,,,,,,,,,,,130.57179199997336,130.57179199997336,130.57179199997336,130.57179199997336,130.57179199997336,q,0.11746859992854297,130.69759920006618,130.69759920006618,131.09953690017574,131.09953690017574,,,,,,,,,,,,,,,,,,,,,,,,,,,,,,,,,,,,,,,,sdfsd,weeew,2023-04-13_19h28.23.764,bandit task,2022.2.5,144.84650623637756,
180,0,180,0,,,,,,,,,,,,,,,,,131.09953690017574,131.09953690017574,131.09953690017574,131.09953690017574,131.09953690017574,p,0.11916879983618855,131.23329450003803,131.23329450003803,,,,,,,,,,,,,,,,,,,,,,,,,,,,,,,,,,,,,,,,,,sdfsd,weeew,2023-04-13_19h28.23.764,bandit task,2022.2.5,144.84650623637756,
181,0,181,0,,,,,,,,,,,,,,,,,131.64118989999406,131.64118989999406,131.64118989999406,131.64118989999406,131.64118989999406,o,0.9242507999297231,132.57402739999816,132.57402739999816,,,,,,,,,,,,,,,,,,,,,,,,,,,,,,,,,,,,,,,,,,sdfsd,weeew,2023-04-13_19h28.23.764,bandit task,2022.2.5,144.84650623637756,
182,0,182,0,,,,,,,,,,,,,,,,,132.9810028001666,132.9810028001666,132.9810028001666,132.9810028001666,132.9810028001666,q,0.19954820000566542,133.1909879001323,133.1909879001323,133.59266970003955,133.59266970003955,,,,,,,,,,,,,,,,,,,,,,,,,,,,,,,,,,,,,,,,sdfsd,weeew,2023-04-13_19h28.23.764,bandit task,2022.2.5,144.84650623637756,
183,0,183,0,,,,,,,,,,,,,,,,,133.59266970003955,133.59266970003955,133.59266970003955,133.59266970003955,133.59266970003955,p,0.06713929981924593,133.66747139999643,133.66747139999643,134.07128880009986,134.07128880009986,,,,,,,,,,,,,,,,,,,,,,,,,,,,,,,,,,,,,,,,sdfsd,weeew,2023-04-13_19h28.23.764,bandit task,2022.2.5,144.84650623637756,
184,0,184,0,,,,,,,,,,,,,,,,,134.07128880009986,134.07128880009986,134.07128880009986,134.07128880009986,134.07128880009986,w,0.03030699980445206,134.11118540004827,134.11118540004827,,,,,,,,,,,,,,,,,,,,,,,,,,,,,,,,,,,,,,,,,,sdfsd,weeew,2023-04-13_19h28.23.764,bandit task,2022.2.5,144.84650623637756,
185,0,185,0,,,,,,,,,,,,,,,,,134.51638759998605,134.51638759998605,134.51638759998605,134.51638759998605,134.51638759998605,o,0.02573619969189167,134.5535916001536,134.5535916001536,,,,,,,,,,,,,,,,,,,,,,,,,,,,,,,,,,,,,,,,,,sdfsd,weeew,2023-04-13_19h28.23.764,bandit task,2022.2.5,144.84650623637756,
186,0,186,0,,,,,,,,,,,,,,,,,134.96049960004166,134.96049960004166,134.96049960004166,134.96049960004166,134.96049960004166,q,0.08634279971010983,135.05932710017078,135.05932710017078,135.46062889997847,135.46062889997847,,,,,,,,,,,,,,,,,,,,,,,,,,,,,,,,,,,,,,,,sdfsd,weeew,2023-04-13_19h28.23.764,bandit task,2022.2.5,144.84650623637756,
187,0,187,0,,,,,,,,,,,,,,,,,135.46062889997847,135.46062889997847,135.46062889997847,135.46062889997847,135.46062889997847,p,0.05833329982124269,135.53114530001767,135.53114530001767,135.93267980008386,135.93267980008386,,,,,,,,,,,,,,,,,,,,,,,,,,,,,,,,,,,,,,,,sdfsd,weeew,2023-04-13_19h28.23.764,bandit task,2022.2.5,144.84650623637756,
188,0,188,0,,,,,,,,,,,,,,,,,135.93267980008386,135.93267980008386,135.93267980008386,135.93267980008386,135.93267980008386,o,0.422966499812901,136.37263540015556,136.37263540015556,,,,,,,,,,,,,,,,,,,,,,,,,,,,,,,,,,,,,,,,,,sdfsd,weeew,2023-04-13_19h28.23.764,bandit task,2022.2.5,144.84650623637756,
189,0,189,0,,,,,,,,,,,,,,,,,136.77338280016556,136.77338280016556,136.77338280016556,136.77338280016556,136.77338280016556,q,0.12217069999314845,136.9070303000044,136.9070303000044,,,,,,,,,,,,,,,,,,,,,,,,,,,,,,,,,,,,,,,,,,sdfsd,weeew,2023-04-13_19h28.23.764,bandit task,2022.2.5,144.84650623637756,
190,0,190,0,,,,,,,,,,,,,,,,,137.31512050004676,137.31512050004676,137.31512050004676,137.31512050004676,137.31512050004676,p,0.0030136997811496258,137.33044150006026,137.33044150006026,,,,,,,,,,,,,,,,,,,,,,,,,,,,,,,,,,,,,,,,,,sdfsd,weeew,2023-04-13_19h28.23.764,bandit task,2022.2.5,144.84650623637756,
191,0,191,0,,,,,,,,,,,,,,,,,137.73805960011669,137.73805960011669,137.73805960011669,137.73805960011669,137.73805960011669,o,0.4549443998839706,138.20512800011784,138.20512800011784,,,,,,,,,,,,,,,,,,,,,,,,,,,,,,,,,,,,,,,,,,sdfsd,weeew,2023-04-13_19h28.23.764,bandit task,2022.2.5,144.84650623637756,
192,0,192,0,,,,,,,,,,,,,,,,,138.61346170003526,138.61346170003526,138.61346170003526,138.61346170003526,138.61346170003526,q,0.1415677999611944,138.76977380015887,138.76977380015887,,,,,,,,,,,,,,,,,,,,,,,,,,,,,,,,,,,,,,,,,,sdfsd,weeew,2023-04-13_19h28.23.764,bandit task,2022.2.5,144.84650623637756,
193,0,193,0,,,,,,,,,,,,,,,,,139.17643800005317,139.17643800005317,139.17643800005317,139.17643800005317,139.17643800005317,p,0.11485140002332628,139.306208900176,139.306208900176,,,,,,,,,,,,,,,,,,,,,,,,,,,,,,,,,,,,,,,,,,sdfsd,weeew,2023-04-13_19h28.23.764,bandit task,2022.2.5,144.84650623637756,
194,0,194,0,,,,,,,,,,,,,,,,,139.71063510002568,139.71063510002568,139.71063510002568,139.71063510002568,139.71063510002568,w,0.10237059975042939,139.82661910005845,139.82661910005845,,,,,,,,,,,,,,,,,,,,,,,,,,,,,,,,,,,,,,,,,,sdfsd,weeew,2023-04-13_19h28.23.764,bandit task,2022.2.5,144.84650623637756,
195,0,195,0,,,,,,,,,,,,,,,,,140.23295650002547,140.23295650002547,140.23295650002547,140.23295650002547,140.23295650002547,o,0.15156619995832443,140.39720010012388,140.39720010012388,,,,,,,,,,,,,,,,,,,,,,,,,,,,,,,,,,,,,,,,,,sdfsd,weeew,2023-04-13_19h28.23.764,bandit task,2022.2.5,144.84650623637756,
196,0,196,0,,,,,,,,,,,,,,,,,140.80088470014744,140.80088470014744,140.80088470014744,140.80088470014744,140.80088470014744,q,0.08595819980837405,140.8986913000699,140.8986913000699,141.3006237000227,141.3006237000227,,,,,,,,,,,,,,,,,,,,,,,,,,,,,,,,,,,,,,,,sdfsd,weeew,2023-04-13_19h28.23.764,bandit task,2022.2.5,144.84650623637756,
197,0,197,0,,,,,,,,,,,,,,,,,141.3006237000227,141.3006237000227,141.3006237000227,141.3006237000227,141.3006237000227,p,0.13186909980140626,141.44066280010156,141.44066280010156,141.8425933001563,141.8425933001563,,,,,,,,,,,,,,,,,,,,,,,,,,,,,,,,,,,,,,,,sdfsd,weeew,2023-04-13_19h28.23.764,bandit task,2022.2.5,144.84650623637756,
198,0,198,0,,,,,,,,,,,,,,,,,141.8425933001563,141.8425933001563,141.8425933001563,141.8425933001563,141.8425933001563,w,0.04412959981709719,141.89996670000255,141.89996670000255,,,,,,,,,,,,,,,,,,,,,,,,,,,,,,,,,,,,,,,,,,sdfsd,weeew,2023-04-13_19h28.23.764,bandit task,2022.2.5,144.84650623637756,
199,0,199,0,,,,,,,,,,,,,,,,,142.30730670015328,142.30730670015328,142.30730670015328,142.30730670015328,142.30730670015328,o,0.07627189997583628,142.3934630001895,142.3934630001895,,,,,,,,,,,,,,,,,,,,,,,,,,,,,,,,,,,,,,,,,,sdfsd,weeew,2023-04-13_19h28.23.764,bandit task,2022.2.5,144.84650623637756,
200,0,200,0,,,,,,,,,,,,,,,,,142.80155510012992,142.80155510012992,142.80155510012992,142.80155510012992,142.80155510012992,q,0.12154019996523857,142.93403610005043,142.93403610005043,,,,,,,,,,,,,,,,,,,,,,,,,,,,,,,,,,,,,,,,,,sdfsd,weeew,2023-04-13_19h28.23.764,bandit task,2022.2.5,144.84650623637756,
201,0,201,0,,,,,,,,,,,,,,,,,143.34244590019807,143.34244590019807,143.34244590019807,143.34244590019807,143.34244590019807,p,0.09007470007054508,143.4419067001436,143.4419067001436,,,,,,,,,,,,,,,,,,,,,,,,,,,,,,,,,,,,,,,,,,sdfsd,weeew,2023-04-13_19h28.23.764,bandit task,2022.2.5,144.84650623637756,
202,0,202,0,,,,,,,,,,,,,,,,,143.84968150011264,143.84968150011264,143.84968150011264,143.84968150011264,143.84968150011264,w,0.0676459998358041,143.92817820003256,143.92817820003256,,,,,,,,,,,,,,,,,,,,,,,,,,,,,,,,,,,,,,,,,,sdfsd,weeew,2023-04-13_19h28.23.764,bandit task,2022.2.5,144.84650623637756,
203,0,203,0,,,,,,,,,,,,,,,,,144.33552580000833,144.33552580000833,144.33552580000833,144.33552580000833,144.33552580000833,o,0.07688989979214966,144.4203087000642,144.4203087000642,,,,,,,,,,,,,,,,,,,,,,,,,,,,,,,,,,,,,,,,,,sdfsd,weeew,2023-04-13_19h28.23.764,bandit task,2022.2.5,144.84650623637756,
204,0,204,0,,,,,,,,,,,,,,,,,144.8285690001212,144.8285690001212,144.8285690001212,144.8285690001212,144.8285690001212,q,0.10002039978280663,144.940832399996,144.940832399996,145.34240660001524,145.34240660001524,,,,,,,,,,,,,,,,,,,,,,,,,,,,,,,,,,,,,,,,sdfsd,weeew,2023-04-13_19h28.23.764,bandit task,2022.2.5,144.84650623637756,
205,0,205,0,,,,,,,,,,,,,,,,,145.34240660001524,145.34240660001524,145.34240660001524,145.34240660001524,145.34240660001524,p,0.013796599814668298,145.36579599999823,145.36579599999823,,,,,,,,,,,,,,,,,,,,,,,,,,,,,,,,,,,,,,,,,,sdfsd,weeew,2023-04-13_19h28.23.764,bandit task,2022.2.5,144.84650623637756,
206,0,206,0,,,,,,,,,,,,,,,,,145.77359910006635,145.77359910006635,145.77359910006635,145.77359910006635,145.77359910006635,w,0.07673859992064536,145.86361600016244,145.86361600016244,146.26634550001472,146.26634550001472,,,,,,,,,,,,,,,,,,,,,,,,,,,,,,,,,,,,,,,,sdfsd,weeew,2023-04-13_19h28.23.764,bandit task,2022.2.5,144.84650623637756,
207,0,207,0,,,,,,,,,,,,,,,,,146.26634550001472,146.26634550001472,146.26634550001472,146.26634550001472,146.26634550001472,o,0.04823219985701144,146.32436530012637,146.32436530012637,,,,,,,,,,,,,,,,,,,,,,,,,,,,,,,,,,,,,,,,,,sdfsd,weeew,2023-04-13_19h28.23.764,bandit task,2022.2.5,144.84650623637756,
208,0,208,0,,,,,,,,,,,,,,,,,146.73155110003427,146.73155110003427,146.73155110003427,146.73155110003427,146.73155110003427,q,0.05070569971576333,146.79906020010822,146.79906020010822,,,,,,,,,,,,,,,,,,,,,,,,,,,,,,,,,,,,,,,,,,sdfsd,weeew,2023-04-13_19h28.23.764,bandit task,2022.2.5,144.84650623637756,
209,0,209,0,,,,,,,,,,,,,,,,,147.20333170006052,147.20333170006052,147.20333170006052,147.20333170006052,147.20333170006052,p,0.023585999850183725,147.23949100007303,147.23949100007303,147.64106820011511,147.64106820011511,,,,,,,,,,,,,,,,,,,,,,,,,,,,,,,,,,,,,,,,sdfsd,weeew,2023-04-13_19h28.23.764,bandit task,2022.2.5,144.84650623637756,
210,0,210,0,,,,,,,,,,,,,,,,,147.64106820011511,147.64106820011511,147.64106820011511,147.64106820011511,147.64106820011511,o,0.4256890998221934,148.0799889001064,148.0799889001064,148.4813906000927,148.4813906000927,,,,,,,,,,,,,,,,,,,,,,,,,,,,,,,,,,,,,,,,sdfsd,weeew,2023-04-13_19h28.23.764,bandit task,2022.2.5,144.84650623637756,
211,0,211,0,,,,,,,,,,,,,,,,,148.4813906000927,148.4813906000927,148.4813906000927,148.4813906000927,148.4813906000927,q,0.11848639999516308,148.61728990008123,148.61728990008123,,,,,,,,,,,,,,,,,,,,,,,,,,,,,,,,,,,,,,,,,,sdfsd,weeew,2023-04-13_19h28.23.764,bandit task,2022.2.5,144.84650623637756,
212,0,212,0,,,,,,,,,,,,,,,,,149.023677600082,149.023677600082,149.023677600082,149.023677600082,149.023677600082,p,0.02621189970523119,149.05612080008723,149.05612080008723,149.4604951001238,149.4604951001238,,,,,,,,,,,,,,,,,,,,,,,,,,,,,,,,,,,,,,,,sdfsd,weeew,2023-04-13_19h28.23.764,bandit task,2022.2.5,144.84650623637756,
213,0,213,0,,,,,,,,,,,,,,,,,149.4604951001238,149.4604951001238,149.4604951001238,149.4604951001238,149.4604951001238,w,0.012758499942719936,149.4832038001623,149.4832038001623,,,,,,,,,,,,,,,,,,,,,,,,,,,,,,,,,,,,,,,,,,sdfsd,weeew,2023-04-13_19h28.23.764,bandit task,2022.2.5,144.84650623637756,
214,0,214,0,,,,,,,,,,,,,,,,,149.890863600187,149.890863600187,149.890863600187,149.890863600187,149.890863600187,o,0.03902669972740114,149.9412037001457,149.9412037001457,150.3424490999896,150.3424490999896,,,,,,,,,,,,,,,,,,,,,,,,,,,,,,,,,,,,,,,,sdfsd,weeew,2023-04-13_19h28.23.764,bandit task,2022.2.5,144.84650623637756,
215,0,215,0,,,,,,,,,,,,,,,,,150.3424490999896,150.3424490999896,150.3424490999896,150.3424490999896,150.3424490999896,q,0.016103799920529127,150.37052620016038,150.37052620016038,150.77369490009733,150.77369490009733,,,,,,,,,,,,,,,,,,,,,,,,,,,,,,,,,,,,,,,,sdfsd,weeew,2023-04-13_19h28.23.764,bandit task,2022.2.5,144.84650623637756,
216,0,216,0,,,,,,,,,,,,,,,,,150.77369490009733,150.77369490009733,150.77369490009733,150.77369490009733,150.77369490009733,p,0.07739800005219877,150.86383759998716,150.86383759998716,151.26638690009713,151.26638690009713,,,,,,,,,,,,,,,,,,,,,,,,,,,,,,,,,,,,,,,,sdfsd,weeew,2023-04-13_19h28.23.764,bandit task,2022.2.5,144.84650623637756,
217,0,217,0,,,,,,,,,,,,,,,,,151.26638690009713,151.26638690009713,151.26638690009713,151.26638690009713,151.26638690009713,w,0.050221299985423684,151.33215950010344,151.33215950010344,,,,,,,,,,,,,,,,,,,,,,,,,,,,,,,,,,,,,,,,,,sdfsd,weeew,2023-04-13_19h28.23.764,bandit task,2022.2.5,144.84650623637756,
218,0,218,0,,,,,,,,,,,,,,,,,151.73826510016806,151.73826510016806,151.73826510016806,151.73826510016806,151.73826510016806,o,0.03659919975325465,151.78787090000696,151.78787090000696,152.18975939997472,152.18975939997472,,,,,,,,,,,,,,,,,,,,,,,,,,,,,,,,,,,,,,,,sdfsd,weeew,2023-04-13_19h28.23.764,bandit task,2022.2.5,144.84650623637756,
219,0,219,0,,,,,,,,,,,,,,,,,152.18975939997472,152.18975939997472,152.18975939997472,152.18975939997472,152.18975939997472,q,0.07862040004692972,152.28054720000364,152.28054720000364,152.68273900006898,152.68273900006898,,,,,,,,,,,,,,,,,,,,,,,,,,,,,,,,,,,,,,,,sdfsd,weeew,2023-04-13_19h28.23.764,bandit task,2022.2.5,144.84650623637756,
220,0,220,0,,,,,,,,,,,,,,,,,152.68273900006898,152.68273900006898,152.68273900006898,152.68273900006898,152.68273900006898,p,0.048175300005823374,152.74221440008841,152.74221440008841,,,,,,,,,,,,,,,,,,,,,,,,,,,,,,,,,,,,,,,,,,sdfsd,weeew,2023-04-13_19h28.23.764,bandit task,2022.2.5,144.84650623637756,
221,0,221,0,,,,,,,,,,,,,,,,,153.14807910006493,153.14807910006493,153.14807910006493,153.14807910006493,153.14807910006493,w,0.005065499804913998,153.16289940010756,153.16289940010756,153.56578990002163,153.56578990002163,,,,,,,,,,,,,,,,,,,,,,,,,,,,,,,,,,,,,,,,sdfsd,weeew,2023-04-13_19h28.23.764,bandit task,2022.2.5,144.84650623637756,
222,0,222,0,,,,,,,,,,,,,,,,,153.56578990002163,153.56578990002163,153.56578990002163,153.56578990002163,153.56578990002163,o,0.28284420003183186,153.8574046001304,153.8574046001304,154.2592971001286,154.2592971001286,,,,,,,,,,,,,,,,,,,,,,,,,,,,,,,,,,,,,,,,sdfsd,weeew,2023-04-13_19h28.23.764,bandit task,2022.2.5,144.84650623637756,
223,0,223,0,,,,,,,,,,,,,,,,,154.2592971001286,154.2592971001286,154.2592971001286,154.2592971001286,154.2592971001286,p,0.42361029982566833,154.6931170001626,154.6931170001626,,,,,,,,,,,,,,,,,,,,,,,,,,,,,,,,,,,,,,,,,,sdfsd,weeew,2023-04-13_19h28.23.764,bandit task,2022.2.5,144.84650623637756,
224,0,224,0,,,,,,,,,,,,,,,,,155.09929689997807,155.09929689997807,155.09929689997807,155.09929689997807,155.09929689997807,w,0.15603899979032576,155.27009380003437,155.27009380003437,,,,,,,,,,,,,,,,,,,,,,,,,,,,,,,,,,,,,,,,,,sdfsd,weeew,2023-04-13_19h28.23.764,bandit task,2022.2.5,144.84650623637756,
225,0,225,0,,,,,,,,,,,,,,,,,155.6761934000533,155.6761934000533,155.6761934000533,155.6761934000533,155.6761934000533,o,0.006576200015842915,155.6906366001349,155.6906366001349,156.09226300008595,156.09226300008595,,,,,,,,,,,,,,,,,,,,,,,,,,,,,,,,,,,,,,,,sdfsd,weeew,2023-04-13_19h28.23.764,bandit task,2022.2.5,144.84650623637756,
226,0,226,0,,,,,,,,,,,,,,,,,156.09226300008595,156.09226300008595,156.09226300008595,156.09226300008595,156.09226300008595,q,0.07631190004758537,156.1795719000511,156.1795719000511,,,,,,,,,,,,,,,,,,,,,,,,,,,,,,,,,,,,,,,,,,sdfsd,weeew,2023-04-13_19h28.23.764,bandit task,2022.2.5,144.84650623637756,
227,0,227,0,,,,,,,,,,,,,,,,,156.5860765001271,156.5860765001271,156.5860765001271,156.5860765001271,156.5860765001271,p,0.028365799924358726,156.62758300011046,156.62758300011046,157.02973970002495,157.02973970002495,,,,,,,,,,,,,,,,,,,,,,,,,,,,,,,,,,,,,,,,sdfsd,weeew,2023-04-13_19h28.23.764,bandit task,2022.2.5,144.84650623637756,
228,0,228,0,,,,,,,,,,,,,,,,,157.02973970002495,157.02973970002495,157.02973970002495,157.02973970002495,157.02973970002495,w,0.0786510999314487,157.1203048999887,157.1203048999887,157.52332739997655,157.52332739997655,,,,,,,,,,,,,,,,,,,,,,,,,,,,,,,,,,,,,,,,sdfsd,weeew,2023-04-13_19h28.23.764,bandit task,2022.2.5,144.84650623637756,
229,0,229,0,,,,,,,,,,,,,,,,,157.52332739997655,157.52332739997655,157.52332739997655,157.52332739997655,157.52332739997655,o,0.021832099882885814,157.55893110018224,157.55893110018224,157.96045230003074,157.96045230003074,,,,,,,,,,,,,,,,,,,,,,,,,,,,,,,,,,,,,,,,sdfsd,weeew,2023-04-13_19h28.23.764,bandit task,2022.2.5,144.84650623637756,
230,0,230,0,,,,,,,,,,,,,,,,,157.96045230003074,157.96045230003074,157.96045230003074,157.96045230003074,157.96045230003074,q,0.041189099894836545,158.00972890015692,158.00972890015692,158.41217230004258,158.41217230004258,,,,,,,,,,,,,,,,,,,,,,,,,,,,,,,,,,,,,,,,sdfsd,weeew,2023-04-13_19h28.23.764,bandit task,2022.2.5,144.84650623637756,
231,0,231,0,,,,,,,,,,,,,,,,,158.41217230004258,158.41217230004258,158.41217230004258,158.41217230004258,158.41217230004258,p,0.04165599984116852,158.46317830006592,158.46317830006592,,,,,,,,,,,,,,,,,,,,,,,,,,,,,,,,,,,,,,,,,,sdfsd,weeew,2023-04-13_19h28.23.764,bandit task,2022.2.5,144.84650623637756,
232,0,232,0,,,,,,,,,,,,,,,,,158.87019859999418,158.87019859999418,158.87019859999418,158.87019859999418,158.87019859999418,o,0.4075269000604749,159.28802800015546,159.28802800015546,159.68948760000058,159.68948760000058,,,,,,,,,,,,,,,,,,,,,,,,,,,,,,,,,,,,,,,,sdfsd,weeew,2023-04-13_19h28.23.764,bandit task,2022.2.5,144.84650623637756,
233,0,233,0,,,,,,,,,,,,,,,,,159.68948760000058,159.68948760000058,159.68948760000058,159.68948760000058,159.68948760000058,q,0.09496390004642308,159.79644240019843,159.79644240019843,,,,,,,,,,,,,,,,,,,,,,,,,,,,,,,,,,,,,,,,,,sdfsd,weeew,2023-04-13_19h28.23.764,bandit task,2022.2.5,144.84650623637756,
234,0,234,0,,,,,,,,,,,,,,,,,160.2041437001899,160.2041437001899,160.2041437001899,160.2041437001899,160.2041437001899,p,0.018696099752560258,160.23207180015743,160.23207180015743,160.63443670002744,160.63443670002744,,,,,,,,,,,,,,,,,,,,,,,,,,,,,,,,,,,,,,,,sdfsd,weeew,2023-04-13_19h28.23.764,bandit task,2022.2.5,144.84650623637756,
235,0,235,0,,,,,,,,,,,,,,,,,160.63443670002744,160.63443670002744,160.63443670002744,160.63443670002744,160.63443670002744,o,0.43484559981152415,161.08007910009474,161.08007910009474,,,,,,,,,,,,,,,,,,,,,,,,,,,,,,,,,,,,,,,,,,sdfsd,weeew,2023-04-13_19h28.23.764,bandit task,2022.2.5,144.84650623637756,
236,0,236,0,,,,,,,,,,,,,,,,,161.48823150014505,161.48823150014505,161.48823150014505,161.48823150014505,161.48823150014505,q,0.1184886998962611,161.61540870019235,161.61540870019235,,,,,,,,,,,,,,,,,,,,,,,,,,,,,,,,,,,,,,,,,,sdfsd,weeew,2023-04-13_19h28.23.764,bandit task,2022.2.5,144.84650623637756,
237,0,237,0,,,,,,,,,,,,,,,,,162.0232106000185,162.0232106000185,162.0232106000185,162.0232106000185,162.0232106000185,p,0.2861448999028653,162.32316070003435,162.32316070003435,162.7250010999851,162.7250010999851,,,,,,,,,,,,,,,,,,,,,,,,,,,,,,,,,,,,,,,,sdfsd,weeew,2023-04-13_19h28.23.764,bandit task,2022.2.5,144.84650623637756,
238,0,238,0,,,,,,,,,,,,,,,,,162.7250010999851,162.7250010999851,162.7250010999851,162.7250010999851,162.7250010999851,w,0.054963900009170175,162.78851950005628,162.78851950005628,,,,,,,,,,,,,,,,,,,,,,,,,,,,,,,,,,,,,,,,,,sdfsd,weeew,2023-04-13_19h28.23.764,bandit task,2022.2.5,144.84650623637756,
239,0,239,0,0,0,0,0,,,,,,,,,,,,,163.19634080003016,163.19634080003016,163.19634080003016,163.19634080003016,163.19634080003016,o,0.02629369986243546,163.2335185999982,163.2335185999982,163.64145640004426,163.64145640004426,163.64145640004426,163.64145640004426,space,1.6512048998847604,,,,,,,,,,,,,,,,,,,,,,,,,,,,,,,,,,,,sdfsd,weeew,2023-04-13_19h28.23.764,bandit task,2022.2.5,144.84650623637756,
239,0,239,0,,,,,,,,,,,,,,,,,,,,,,,,,,,,,,,,,,,,,,,,,,,,,,,,,,,,,,,,,,,,,,,,,,,sdfsd,weeew,2023-04-13_19h28.23.764,bandit task,2022.2.5,144.84650623637756,
,,,,,,,,,,,,,,,,,,,,,,,,,,,,,,,,,,,165.30587210017256,165.30587210017256,space,2.7491952998097986,,,,,,,,,,,,,,,,,,,,,,,,,,,,,,,,sdfsd,weeew,2023-04-13_19h28.23.764,bandit task,2022.2.5,144.84650623637756,
,,,,,,,,0,0,0,0,,,,,,,,,,,,,,,,,,,,,,,,,,,,168.0695889000781,168.0695889000781,168.0695889000781,168.0695889000781,168.0695889000781,168.0695889000781,168.0695889000781,168.0695889000781,168.0695889000781,169.07277910015546,169.07277910015546,169.07277910015546,169.07277910015546,169.07277910015546,169.07277910015546,169.07277910015546,169.07277910015546,169.07277910015546,None,169.07277910015546,169.07277910015546,169.07277910015546,169.07277910015546,169.474806800019,169.474806800019,,,,,,,sdfsd,weeew,2023-04-13_19h28.23.764,bandit task,2022.2.5,144.84650623637756,
,,,,,,,,1,0,1,0,,,,,,,,,,,,,,,,,,,,,,,,,,,,169.474806800019,169.474806800019,169.474806800019,169.474806800019,169.474806800019,169.474806800019,169.474806800019,169.474806800019,169.474806800019,,,,,,,,,,q,169.75754270004109,169.75754270004109,170.16289840009995,169.75754270004109,169.75754270004109,170.16289840009995,0.27038399991579354,,,,,,sdfsd,weeew,2023-04-13_19h28.23.764,bandit task,2022.2.5,144.84650623637756,
,,,,,,,,2,0,2,0,,,,,,,,,,,,,,,,,,,,,,,,,,,,170.16289840009995,170.16289840009995,170.16289840009995,170.16289840009995,170.16289840009995,170.16289840009995,170.16289840009995,170.16289840009995,170.16289840009995,,,,,,,,,,p,170.41839380003512,170.41839380003512,170.82154240016825,170.41839380003512,170.41839380003512,170.82154240016825,0.2466055997647345,,,,,,sdfsd,weeew,2023-04-13_19h28.23.764,bandit task,2022.2.5,144.84650623637756,
,,,,,,,,3,0,3,0,,,,,,,,,,,,,,,,,,,,,,,,,,,,170.82154240016825,170.82154240016825,170.82154240016825,170.82154240016825,170.82154240016825,170.82154240016825,170.82154240016825,170.82154240016825,170.82154240016825,,,,,,,,,,w,171.03658220008947,171.03658220008947,171.43937190016732,171.03658220008947,171.03658220008947,171.43937190016732,0.2019417998380959,,,,,,sdfsd,weeew,2023-04-13_19h28.23.764,bandit task,2022.2.5,144.84650623637756,
,,,,,,,,4,0,4,0,,,,,,,,,,,,,,,,,,,,,,,,,,,,171.43937190016732,171.43937190016732,171.43937190016732,171.43937190016732,171.43937190016732,171.43937190016732,171.43937190016732,171.43937190016732,171.43937190016732,,,,,,,,,,o,171.68418180011213,171.68418180011213,172.08709370018914,171.68418180011213,171.68418180011213,172.08709370018914,0.23632889986038208,,,,,,sdfsd,weeew,2023-04-13_19h28.23.764,bandit task,2022.2.5,144.84650623637756,
,,,,,,,,5,0,5,0,,,,,,,,,,,,,,,,,,,,,,,,,,,,172.08709370018914,172.08709370018914,172.08709370018914,172.08709370018914,172.08709370018914,172.08709370018914,172.08709370018914,172.08709370018914,172.08709370018914,,,,,,,,,,q,172.3992920999881,172.3992920999881,172.80737540009432,172.3992920999881,172.3992920999881,172.80737540009432,0.2985765999183059,,,,,,sdfsd,weeew,2023-04-13_19h28.23.764,bandit task,2022.2.5,144.84650623637756,
,,,,,,,,6,0,6,0,,,,,,,,,,,,,,,,,,,,,,,,,,,,172.80737540009432,172.80737540009432,172.80737540009432,172.80737540009432,172.80737540009432,172.80737540009432,172.80737540009432,172.80737540009432,172.80737540009432,,,,,,,,,,p,173.03224960016087,173.03224960016087,173.44010320003144,173.03224960016087,173.03224960016087,173.44010320003144,0.21475709998048842,,,,,,sdfsd,weeew,2023-04-13_19h28.23.764,bandit task,2022.2.5,144.84650623637756,
,,,,,,,,7,0,7,0,,,,,,,,,,,,,,,,,,,,,,,,,,,,173.44010320003144,173.44010320003144,173.44010320003144,173.44010320003144,173.44010320003144,173.44010320003144,173.44010320003144,173.44010320003144,173.44010320003144,,,,,,,,,,q,173.66574490000494,173.66574490000494,174.07179880002514,173.66574490000494,173.66574490000494,174.07179880002514,0.21481320005841553,,,,,,sdfsd,weeew,2023-04-13_19h28.23.764,bandit task,2022.2.5,144.84650623637756,
,,,,,,,,8,0,8,0,,,,,,,,,,,,,,,,,,,,,,,,,,,,174.07179880002514,174.07179880002514,174.07179880002514,174.07179880002514,174.07179880002514,174.07179880002514,174.07179880002514,174.07179880002514,174.07179880002514,,,,,,,,,,p,174.30267870007083,174.30267870007083,174.71191720012575,174.30267870007083,174.30267870007083,174.71191720012575,0.22001839987933636,,,,,,sdfsd,weeew,2023-04-13_19h28.23.764,bandit task,2022.2.5,144.84650623637756,
,,,,,,,,9,0,9,0,,,,,,,,,,,,,,,,,,,,,,,,,,,,174.71191720012575,174.71191720012575,174.71191720012575,174.71191720012575,174.71191720012575,174.71191720012575,174.71191720012575,174.71191720012575,174.71191720012575,,,,,,,,,,q,174.9195050999988,174.9195050999988,175.32146590016782,174.9195050999988,174.9195050999988,175.32146590016782,0.19663570006377995,,,,,,sdfsd,weeew,2023-04-13_19h28.23.764,bandit task,2022.2.5,144.84650623637756,
,,,,,,,,10,0,10,0,,,,,,,,,,,,,,,,,,,,,,,,,,,,175.32146590016782,175.32146590016782,175.32146590016782,175.32146590016782,175.32146590016782,175.32146590016782,175.32146590016782,175.32146590016782,175.32146590016782,,,,,,,,,,p,175.55334610003047,175.55334610003047,175.96095910016447,175.55334610003047,175.55334610003047,175.96095910016447,0.21809159987606108,,,,,,sdfsd,weeew,2023-04-13_19h28.23.764,bandit task,2022.2.5,144.84650623637756,
,,,,,,,,11,0,11,0,,,,,,,,,,,,,,,,,,,,,,,,,,,,175.96095910016447,175.96095910016447,175.96095910016447,175.96095910016447,175.96095910016447,175.96095910016447,175.96095910016447,175.96095910016447,175.96095910016447,,,,,,,,,,q,176.14052920020185,176.14052920020185,176.5443229000084,176.14052920020185,176.14052920020185,176.5443229000084,0.1657539999578148,,,,,,sdfsd,weeew,2023-04-13_19h28.23.764,bandit task,2022.2.5,144.84650623637756,
,,,,,,,,12,0,12,0,,,,,,,,,,,,,,,,,,,,,,,,,,,,176.5443229000084,176.5443229000084,176.5443229000084,176.5443229000084,176.5443229000084,176.5443229000084,176.5443229000084,176.5443229000084,176.5443229000084,,,,,,,,,,p,176.7423772001639,176.7423772001639,177.1490287000779,176.7423772001639,176.7423772001639,177.1490287000779,0.1889664998743683,,,,,,sdfsd,weeew,2023-04-13_19h28.23.764,bandit task,2022.2.5,144.84650623637756,
,,,,,,,,13,0,13,0,,,,,,,,,,,,,,,,,,,,,,,,,,,,177.1490287000779,177.1490287000779,177.1490287000779,177.1490287000779,177.1490287000779,177.1490287000779,177.1490287000779,177.1490287000779,177.1490287000779,,,,,,,,,,q,177.30900550005026,177.30900550005026,177.7109503999818,177.30900550005026,177.30900550005026,177.7109503999818,0.14764629979617894,,,,,,sdfsd,weeew,2023-04-13_19h28.23.764,bandit task,2022.2.5,144.84650623637756,
,,,,,,,,14,0,14,0,,,,,,,,,,,,,,,,,,,,,,,,,,,,177.7109503999818,177.7109503999818,177.7109503999818,177.7109503999818,177.7109503999818,177.7109503999818,177.7109503999818,177.7109503999818,177.7109503999818,,,,,,,,,,p,177.84421410015784,177.84421410015784,178.2528318001423,177.84421410015784,177.84421410015784,178.2528318001423,0.11859970004297793,,,,,,sdfsd,weeew,2023-04-13_19h28.23.764,bandit task,2022.2.5,144.84650623637756,
,,,,,,,,15,0,15,0,,,,,,,,,,,,,,,,,,,,,,,,,,,,178.2528318001423,178.2528318001423,178.2528318001423,178.2528318001423,178.2528318001423,178.2528318001423,178.2528318001423,178.2528318001423,178.2528318001423,,,,,,,,,,q,178.43356100004166,178.43356100004166,178.83549339999445,178.43356100004166,178.43356100004166,178.83549339999445,0.1681774000171572,,,,,,sdfsd,weeew,2023-04-13_19h28.23.764,bandit task,2022.2.5,144.84650623637756,
,,,,,,,,16,0,16,0,,,,,,,,,,,,,,,,,,,,,,,,,,,,178.83549339999445,178.83549339999445,178.83549339999445,178.83549339999445,178.83549339999445,178.83549339999445,178.83549339999445,178.83549339999445,178.83549339999445,,,,,,,,,,p,178.96863600006327,178.96863600006327,179.37743770005181,178.96863600006327,178.96863600006327,179.37743770005181,0.12292240001261234,,,,,,sdfsd,weeew,2023-04-13_19h28.23.764,bandit task,2022.2.5,144.84650623637756,
,,,,,,,,17,0,17,0,,,,,,,,,,,,,,,,,,,,,,,,,,,,179.37743770005181,179.37743770005181,179.37743770005181,179.37743770005181,179.37743770005181,179.37743770005181,179.37743770005181,179.37743770005181,179.37743770005181,,,,,,,,,,q,179.54620380001143,179.54620380001143,179.95354640018195,179.54620380001143,179.54620380001143,179.95354640018195,0.15857419976964593,,,,,,sdfsd,weeew,2023-04-13_19h28.23.764,bandit task,2022.2.5,144.84650623637756,
,,,,,,,,18,0,18,0,,,,,,,,,,,,,,,,,,,,,,,,,,,,179.95354640018195,179.95354640018195,179.95354640018195,179.95354640018195,179.95354640018195,179.95354640018195,179.95354640018195,179.95354640018195,179.95354640018195,,,,,,,,,,p,180.1090206000954,180.1090206000954,180.5162129001692,180.1090206000954,180.1090206000954,180.5162129001692,0.1401911999564618,,,,,,sdfsd,weeew,2023-04-13_19h28.23.764,bandit task,2022.2.5,144.84650623637756,
,,,,,,,,19,0,19,0,,,,,,,,,,,,,,,,,,,,,,,,,,,,180.5162129001692,180.5162129001692,180.5162129001692,180.5162129001692,180.5162129001692,180.5162129001692,180.5162129001692,180.5162129001692,180.5162129001692,,,,,,,,,,q,180.66995700006373,180.66995700006373,181.07138800015673,180.66995700006373,180.66995700006373,181.07138800015673,0.14088269998319447,,,,,,sdfsd,weeew,2023-04-13_19h28.23.764,bandit task,2022.2.5,144.84650623637756,
,,,,,,,,20,0,20,0,,,,,,,,,,,,,,,,,,,,,,,,,,,,181.07138800015673,181.07138800015673,181.07138800015673,181.07138800015673,181.07138800015673,181.07138800015673,181.07138800015673,181.07138800015673,181.07138800015673,,,,,,,,,,p,181.21170710003935,181.21170710003935,181.6141713000834,181.21170710003935,181.21170710003935,181.6141713000834,0.12994989985600114,,,,,,sdfsd,weeew,2023-04-13_19h28.23.764,bandit task,2022.2.5,144.84650623637756,
,,,,,,,,21,0,21,0,,,,,,,,,,,,,,,,,,,,,,,,,,,,181.6141713000834,181.6141713000834,181.6141713000834,181.6141713000834,181.6141713000834,181.6141713000834,181.6141713000834,181.6141713000834,181.6141713000834,,,,,,,,,,q,181.80922459997237,181.80922459997237,182.21738140005618,181.80922459997237,181.80922459997237,182.21738140005618,0.1850123000331223,,,,,,sdfsd,weeew,2023-04-13_19h28.23.764,bandit task,2022.2.5,144.84650623637756,
,,,,,,,,22,0,22,0,,,,,,,,,,,,,,,,,,,,,,,,,,,,182.21738140005618,182.21738140005618,182.21738140005618,182.21738140005618,182.21738140005618,182.21738140005618,182.21738140005618,182.21738140005618,182.21738140005618,,,,,,,,,,p,182.3375878999941,182.3375878999941,182.7457823001314,182.3375878999941,182.3375878999941,182.7457823001314,0.11040939996019006,,,,,,sdfsd,weeew,2023-04-13_19h28.23.764,bandit task,2022.2.5,144.84650623637756,
,,,,,,,,23,0,23,0,,,,,,,,,,,,,,,,,,,,,,,,,,,,182.7457823001314,182.7457823001314,182.7457823001314,182.7457823001314,182.7457823001314,182.7457823001314,182.7457823001314,182.7457823001314,182.7457823001314,,,,,,,,,,q,182.9826929999981,182.9826929999981,183.39125600014813,182.9826929999981,182.9826929999981,183.39125600014813,0.2225860001053661,,,,,,sdfsd,weeew,2023-04-13_19h28.23.764,bandit task,2022.2.5,144.84650623637756,
,,,,,,,,24,0,24,0,,,,,,,,,,,,,,,,,,,,,,,,,,,,183.39125600014813,183.39125600014813,183.39125600014813,183.39125600014813,183.39125600014813,183.39125600014813,183.39125600014813,183.39125600014813,183.39125600014813,,,,,,,,,,p,183.57358200009912,183.57358200009912,183.9808838001918,183.57358200009912,183.57358200009912,183.9808838001918,0.16844019992277026,,,,,,sdfsd,weeew,2023-04-13_19h28.23.764,bandit task,2022.2.5,144.84650623637756,
,,,,,,,,25,0,25,0,,,,,,,,,,,,,,,,,,,,,,,,,,,,183.9808838001918,183.9808838001918,183.9808838001918,183.9808838001918,183.9808838001918,183.9808838001918,183.9808838001918,183.9808838001918,183.9808838001918,,,,,,,,,,q,184.1157947999891,184.1157947999891,184.5236973001156,184.1157947999891,184.1157947999891,184.5236973001156,0.12152169994078577,,,,,,sdfsd,weeew,2023-04-13_19h28.23.764,bandit task,2022.2.5,144.84650623637756,
,,,,,,,,26,0,26,0,,,,,,,,,,,,,,,,,,,,,,,,,,,,184.5236973001156,184.5236973001156,184.5236973001156,184.5236973001156,184.5236973001156,184.5236973001156,184.5236973001156,184.5236973001156,184.5236973001156,,,,,,,,,,p,184.72527220007032,184.72527220007032,185.12672880012542,184.72527220007032,184.72527220007032,185.12672880012542,0.1888135999906808,,,,,,sdfsd,weeew,2023-04-13_19h28.23.764,bandit task,2022.2.5,144.84650623637756,
,,,,,,,,27,0,27,0,,,,,,,,,,,,,,,,,,,,,,,,,,,,185.12672880012542,185.12672880012542,185.12672880012542,185.12672880012542,185.12672880012542,185.12672880012542,185.12672880012542,185.12672880012542,185.12672880012542,,,,,,,,,,q,185.3094781001564,185.3094781001564,185.7175451000221,185.3094781001564,185.3094781001564,185.7175451000221,0.17495479993522167,,,,,,sdfsd,weeew,2023-04-13_19h28.23.764,bandit task,2022.2.5,144.84650623637756,
,,,,,,,,28,0,28,0,,,,,,,,,,,,,,,,,,,,,,,,,,,,185.7175451000221,185.7175451000221,185.7175451000221,185.7175451000221,185.7175451000221,185.7175451000221,185.7175451000221,185.7175451000221,185.7175451000221,,,,,,,,,,p,185.83641580003314,185.83641580003314,186.23826100002043,185.83641580003314,185.83641580003314,186.23826100002043,0.11051699984818697,,,,,,sdfsd,weeew,2023-04-13_19h28.23.764,bandit task,2022.2.5,144.84650623637756,
,,,,,,,,29,0,29,0,,,,,,,,,,,,,,,,,,,,,,,,,,,,186.23826100002043,186.23826100002043,186.23826100002043,186.23826100002043,186.23826100002043,186.23826100002043,186.23826100002043,186.23826100002043,186.23826100002043,,,,,,,,,,q,186.4133103999775,186.4133103999775,186.8216825001873,186.4133103999775,186.4133103999775,186.8216825001873,0.15966030000708997,,,,,,sdfsd,weeew,2023-04-13_19h28.23.764,bandit task,2022.2.5,144.84650623637756,
,,,,,,,,30,0,30,0,,,,,,,,,,,,,,,,,,,,,,,,,,,,186.8216825001873,186.8216825001873,186.8216825001873,186.8216825001873,186.8216825001873,186.8216825001873,186.8216825001873,186.8216825001873,186.8216825001873,,,,,,,,,,p,186.96434670011513,186.96434670011513,187.37232329999097,186.96434670011513,186.96434670011513,187.37232329999097,0.13151629967615008,,,,,,sdfsd,weeew,2023-04-13_19h28.23.764,bandit task,2022.2.5,144.84650623637756,
,,,,,,,,31,0,31,0,,,,,,,,,,,,,,,,,,,,,,,,,,,,187.37232329999097,187.37232329999097,187.37232329999097,187.37232329999097,187.37232329999097,187.37232329999097,187.37232329999097,187.37232329999097,187.37232329999097,,,,,,,,,,q,187.5162318001967,187.5162318001967,187.91970500000753,187.5162318001967,187.5162318001967,187.91970500000753,0.13235049997456372,,,,,,sdfsd,weeew,2023-04-13_19h28.23.764,bandit task,2022.2.5,144.84650623637756,
,,,,,,,,32,0,32,0,,,,,,,,,,,,,,,,,,,,,,,,,,,,187.91970500000753,187.91970500000753,187.91970500000753,187.91970500000753,187.91970500000753,187.91970500000753,187.91970500000753,187.91970500000753,187.91970500000753,,,,,,,,,,p,188.03841789998114,188.03841789998114,188.44635790004395,188.03841789998114,188.03841789998114,188.44635790004395,0.10470149992033839,,,,,,sdfsd,weeew,2023-04-13_19h28.23.764,bandit task,2022.2.5,144.84650623637756,
,,,,,,,,33,0,33,0,,,,,,,,,,,,,,,,,,,,,,,,,,,,188.44635790004395,188.44635790004395,188.44635790004395,188.44635790004395,188.44635790004395,188.44635790004395,188.44635790004395,188.44635790004395,188.44635790004395,,,,,,,,,,q,188.5944036000874,188.5944036000874,189.00216620019637,188.5944036000874,188.5944036000874,189.00216620019637,0.1308374998625368,,,,,,sdfsd,weeew,2023-04-13_19h28.23.764,bandit task,2022.2.5,144.84650623637756,
,,,,,,,,34,0,34,0,,,,,,,,,,,,,,,,,,,,,,,,,,,,189.00216620019637,189.00216620019637,189.00216620019637,189.00216620019637,189.00216620019637,189.00216620019637,189.00216620019637,189.00216620019637,189.00216620019637,,,,,,,,,,p,189.1295779000502,189.1295779000502,189.53652069997042,189.1295779000502,189.1295779000502,189.53652069997042,0.1162965998519212,,,,,,sdfsd,weeew,2023-04-13_19h28.23.764,bandit task,2022.2.5,144.84650623637756,
,,,,,,,,35,0,35,0,,,,,,,,,,,,,,,,,,,,,,,,,,,,189.53652069997042,189.53652069997042,189.53652069997042,189.53652069997042,189.53652069997042,189.53652069997042,189.53652069997042,189.53652069997042,189.53652069997042,,,,,,,,,,q,189.69455710006878,189.69455710006878,190.1003968999721,189.69455710006878,189.69455710006878,190.1003968999721,0.13638369995169342,,,,,,sdfsd,weeew,2023-04-13_19h28.23.764,bandit task,2022.2.5,144.84650623637756,
,,,,,,,,36,0,36,0,,,,,,,,,,,,,,,,,,,,,,,,,,,,190.1003968999721,190.1003968999721,190.1003968999721,190.1003968999721,190.1003968999721,190.1003968999721,190.1003968999721,190.1003968999721,190.1003968999721,,,,,,,,,,p,190.23506420012563,190.23506420012563,190.64069760008715,190.23506420012563,190.23506420012563,190.64069760008715,0.12173329992219806,,,,,,sdfsd,weeew,2023-04-13_19h28.23.764,bandit task,2022.2.5,144.84650623637756,
,,,,,,,,37,0,37,0,,,,,,,,,,,,,,,,,,,,,,,,,,,,190.64069760008715,190.64069760008715,190.64069760008715,190.64069760008715,190.64069760008715,190.64069760008715,190.64069760008715,190.64069760008715,190.64069760008715,,,,,,,,,,q,190.80862450017594,190.80862450017594,191.2105267001316,190.80862450017594,190.80862450017594,191.2105267001316,0.15548359975218773,,,,,,sdfsd,weeew,2023-04-13_19h28.23.764,bandit task,2022.2.5,144.84650623637756,
,,,,,,,,38,0,38,0,,,,,,,,,,,,,,,,,,,,,,,,,,,,191.2105267001316,191.2105267001316,191.2105267001316,191.2105267001316,191.2105267001316,191.2105267001316,191.2105267001316,191.2105267001316,191.2105267001316,,,,,,,,,,p,191.3103472001385,191.3103472001385,191.7174546001479,191.3103472001385,191.3103472001385,191.7174546001479,0.08733309991657734,,,,,,sdfsd,weeew,2023-04-13_19h28.23.764,bandit task,2022.2.5,144.84650623637756,
,,,,,,,,39,0,39,0,,,,,,,,,,,,,,,,,,,,,,,,,,,,191.7174546001479,191.7174546001479,191.7174546001479,191.7174546001479,191.7174546001479,191.7174546001479,191.7174546001479,191.7174546001479,191.7174546001479,,,,,,,,,,q,191.93468130007386,191.93468130007386,192.33630320010707,191.93468130007386,191.93468130007386,192.33630320010707,0.20581859978847206,,,,,,sdfsd,weeew,2023-04-13_19h28.23.764,bandit task,2022.2.5,144.84650623637756,
,,,,,,,,40,0,40,0,,,,,,,,,,,,,,,,,,,,,,,,,,,,192.33630320010707,192.33630320010707,192.33630320010707,192.33630320010707,192.33630320010707,192.33630320010707,192.33630320010707,192.33630320010707,192.33630320010707,,,,,,,,,,p,192.49619169998914,192.49619169998914,192.8976378000807,192.49619169998914,192.49619169998914,192.8976378000807,0.14792969985865057,,,,,,sdfsd,weeew,2023-04-13_19h28.23.764,bandit task,2022.2.5,144.84650623637756,
,,,,,,,,41,0,41,0,,,,,,,,,,,,,,,,,,,,,,,,,,,,192.8976378000807,192.8976378000807,192.8976378000807,192.8976378000807,192.8976378000807,192.8976378000807,192.8976378000807,192.8976378000807,192.8976378000807,,,,,,,,,,q,193.11011960008182,193.11011960008182,193.5160452001728,193.11011960008182,193.11011960008182,193.5160452001728,0.19702589977532625,,,,,,sdfsd,weeew,2023-04-13_19h28.23.764,bandit task,2022.2.5,144.84650623637756,
,,,,,,,,42,0,42,0,,,,,,,,,,,,,,,,,,,,,,,,,,,,193.5160452001728,193.5160452001728,193.5160452001728,193.5160452001728,193.5160452001728,193.5160452001728,193.5160452001728,193.5160452001728,193.5160452001728,,,,,,,,,,p,193.66593220015056,193.66593220015056,194.0720662001986,193.66593220015056,193.66593220015056,194.0720662001986,0.13988379994407296,,,,,,sdfsd,weeew,2023-04-13_19h28.23.764,bandit task,2022.2.5,144.84650623637756,
,,,,,,,,43,0,43,0,,,,,,,,,,,,,,,,,,,,,,,,,,,,194.0720662001986,194.0720662001986,194.0720662001986,194.0720662001986,194.0720662001986,194.0720662001986,194.0720662001986,194.0720662001986,194.0720662001986,,,,,,,,,,q,194.26402660016902,194.26402660016902,194.6684036999941,194.26402660016902,194.26402660016902,194.6684036999941,0.1799861998297274,,,,,,sdfsd,weeew,2023-04-13_19h28.23.764,bandit task,2022.2.5,144.84650623637756,
,,,,,,,,44,0,44,0,,,,,,,,,,,,,,,,,,,,,,,,,,,,194.6684036999941,194.6684036999941,194.6684036999941,194.6684036999941,194.6684036999941,194.6684036999941,194.6684036999941,194.6684036999941,194.6684036999941,,,,,,,,,,p,194.80430190009065,194.80430190009065,195.21167220012285,194.80430190009065,194.80430190009065,195.21167220012285,0.12434469978325069,,,,,,sdfsd,weeew,2023-04-13_19h28.23.764,bandit task,2022.2.5,144.84650623637756,
,,,,,,,,45,0,45,0,,,,,,,,,,,,,,,,,,,,,,,,,,,,195.21167220012285,195.21167220012285,195.21167220012285,195.21167220012285,195.21167220012285,195.21167220012285,195.21167220012285,195.21167220012285,195.21167220012285,,,,,,,,,,q,195.30886140000075,195.30886140000075,195.71227480005473,195.30886140000075,195.30886140000075,195.71227480005473,0.0869732997380197,,,,,,sdfsd,weeew,2023-04-13_19h28.23.764,bandit task,2022.2.5,144.84650623637756,
,,,,,,,,46,0,46,0,,,,,,,,,,,,,,,,,,,,,,,,,,,,195.71227480005473,195.71227480005473,195.71227480005473,195.71227480005473,195.71227480005473,195.71227480005473,195.71227480005473,195.71227480005473,195.71227480005473,,,,,,,,,,p,195.85684120003134,195.85684120003134,196.2598699000664,195.85684120003134,195.85684120003134,196.2598699000664,0.13272559992037714,,,,,,sdfsd,weeew,2023-04-13_19h28.23.764,bandit task,2022.2.5,144.84650623637756,
,,,,,,,,47,0,47,0,,,,,,,,,,,,,,,,,,,,,,,,,,,,196.2598699000664,196.2598699000664,196.2598699000664,196.2598699000664,196.2598699000664,196.2598699000664,196.2598699000664,196.2598699000664,196.2598699000664,,,,,,,,,,q,196.46152630005963,196.46152630005963,196.8633679000195,196.46152630005963,196.46152630005963,196.8633679000195,0.18863069987855852,,,,,,sdfsd,weeew,2023-04-13_19h28.23.764,bandit task,2022.2.5,144.84650623637756,
,,,,,,,,48,0,48,0,,,,,,,,,,,,,,,,,,,,,,,,,,,,196.8633679000195,196.8633679000195,196.8633679000195,196.8633679000195,196.8633679000195,196.8633679000195,196.8633679000195,196.8633679000195,196.8633679000195,,,,,,,,,,p,197.01581380004063,197.01581380004063,197.4190311001148,197.01581380004063,197.01581380004063,197.4190311001148,0.14043929986655712,,,,,,sdfsd,weeew,2023-04-13_19h28.23.764,bandit task,2022.2.5,144.84650623637756,
,,,,,,,,49,0,49,0,,,,,,,,,,,,,,,,,,,,,,,,,,,,197.4190311001148,197.4190311001148,197.4190311001148,197.4190311001148,197.4190311001148,197.4190311001148,197.4190311001148,197.4190311001148,197.4190311001148,,,,,,,,,,q,197.53146540001035,197.53146540001035,197.9327195000369,197.53146540001035,197.53146540001035,197.9327195000369,0.102991399820894,,,,,,sdfsd,weeew,2023-04-13_19h28.23.764,bandit task,2022.2.5,144.84650623637756,
,,,,,,,,50,0,50,0,,,,,,,,,,,,,,,,,,,,,,,,,,,,197.9327195000369,197.9327195000369,197.9327195000369,197.9327195000369,197.9327195000369,197.9327195000369,197.9327195000369,197.9327195000369,197.9327195000369,,,,,,,,,,p,198.0808034001384,198.0808034001384,198.49077070015483,198.0808034001384,198.0808034001384,198.49077070015483,0.13476959988474846,,,,,,sdfsd,weeew,2023-04-13_19h28.23.764,bandit task,2022.2.5,144.84650623637756,
,,,,,,,,51,0,51,0,,,,,,,,,,,,,,,,,,,,,,,,,,,,198.49077070015483,198.49077070015483,198.49077070015483,198.49077070015483,198.49077070015483,198.49077070015483,198.49077070015483,198.49077070015483,198.49077070015483,,,,,,,,,,q,198.58851000014693,198.58851000014693,198.99547070008703,198.58851000014693,198.58851000014693,198.99547070008703,0.08452939987182617,,,,,,sdfsd,weeew,2023-04-13_19h28.23.764,bandit task,2022.2.5,144.84650623637756,
,,,,,,,,52,0,52,0,,,,,,,,,,,,,,,,,,,,,,,,,,,,198.99547070008703,198.99547070008703,198.99547070008703,198.99547070008703,198.99547070008703,198.99547070008703,198.99547070008703,198.99547070008703,198.99547070008703,,,,,,,,,,p,199.0930541001726,199.0930541001726,199.49551020003855,199.0930541001726,199.0930541001726,199.49551020003855,0.08960479986853898,,,,,,sdfsd,weeew,2023-04-13_19h28.23.764,bandit task,2022.2.5,144.84650623637756,
