utrials.thisRepN,utrials.thisTrialN,utrials.thisN,utrials.thisIndex,trials_2.thisRepN,trials_2.thisTrialN,trials_2.thisN,trials_2.thisIndex,trials.thisRepN,trials.thisTrialN,trials.thisN,trials.thisIndex,trials_3.thisRepN,trials_3.thisTrialN,trials_3.thisN,trials_3.thisIndex,uIntrotext.started,uenter_resp.started,uenter_resp.keys,uenter_resp.rt,ukey_resp.started,Q.started,W.started,O.started,P.started,ukey_resp.keys,ukey_resp.rt,sad1.started,text_3.started,sad1.stopped,text_3.stopped,text.started,enterresp.started,enterresp.keys,enterresp.rt,Optionq.started,optionw.started,optiono.started,Optionp.started,key_resp.started,Ql.started,Wl.started,Ol.started,Pl.started,key_resp.keys,key_resp.rt,clk.started,clk.stopped,sad.started,text_2.started,sad.stopped,text_2.stopped,Optionq.stopped,optionw.stopped,optiono.stopped,Optionp.stopped,key_resp.stopped,Ql.stopped,Wl.stopped,Ol.stopped,Pl.stopped,text_4.started,Roll Number,Name,date,expName,psychopyVersion,frameRate,
,,,,,,,,,,,,,,,,36.94294030009769,36.94294030009769,space,0.47900049993768334,,,,,,,,,,,,,,,,,,,,,,,,,,,,,,,,,,,,,,,,,,,sdfs,sdfsd,2023-04-12_22h05.50.281,bandit task,2022.2.5,144.05838364813337,
0,0,0,0,,,,,,,,,,,,,,,,,37.45467030000873,37.45467030000873,37.45467030000873,37.45467030000873,37.45467030000873,q,0.6424826998263597,38.1156282001175,38.1156282001175,,,,,,,,,,,,,,,,,,,,,,,,,,,,,,,,,,sdfs,sdfsd,2023-04-12_22h05.50.281,bandit task,2022.2.5,144.05838364813337,
1,0,1,0,,,,,,,,,,,,,,,,,38.51931450003758,38.51931450003758,38.51931450003758,38.51931450003758,38.51931450003758,w,0.22940660011954606,38.75607239990495,38.75607239990495,39.15850059990771,39.15850059990771,,,,,,,,,,,,,,,,,,,,,,,,,,,,,,,,sdfs,sdfsd,2023-04-12_22h05.50.281,bandit task,2022.2.5,144.05838364813337,
2,0,2,0,,,,,,,,,,,,,,,,,39.15850059990771,39.15850059990771,39.15850059990771,39.15850059990771,39.15850059990771,o,0.2698647999204695,39.43598730000667,39.43598730000667,39.839101700112224,39.839101700112224,,,,,,,,,,,,,,,,,,,,,,,,,,,,,,,,sdfs,sdfsd,2023-04-12_22h05.50.281,bandit task,2022.2.5,144.05838364813337,
3,0,3,0,,,,,,,,,,,,,,,,,39.839101700112224,39.839101700112224,39.839101700112224,39.839101700112224,39.839101700112224,p,0.2134792001452297,40.063523600110784,40.063523600110784,,,,,,,,,,,,,,,,,,,,,,,,,,,,,,,,,,sdfs,sdfsd,2023-04-12_22h05.50.281,bandit task,2022.2.5,144.05838364813337,
4,0,4,0,,,,,,,,,,,,,,,,,40.470869299955666,40.470869299955666,40.470869299955666,40.470869299955666,40.470869299955666,q,0.17118940013460815,40.65126350009814,40.65126350009814,41.05426719994284,41.05426719994284,,,,,,,,,,,,,,,,,,,,,,,,,,,,,,,,sdfs,sdfsd,2023-04-12_22h05.50.281,bandit task,2022.2.5,144.05838364813337,
5,0,5,0,,,,,,,,,,,,,,,,,41.05426719994284,41.05426719994284,41.05426719994284,41.05426719994284,41.05426719994284,w,0.21672959998250008,41.28371970006265,41.28371970006265,41.68621010007337,41.68621010007337,,,,,,,,,,,,,,,,,,,,,,,,,,,,,,,,sdfs,sdfsd,2023-04-12_22h05.50.281,bandit task,2022.2.5,144.05838364813337,
6,0,6,0,,,,,,,,,,,,,,,,,41.68621010007337,41.68621010007337,41.68621010007337,41.68621010007337,41.68621010007337,o,0.2383842000272125,41.93479739991017,41.93479739991017,42.33893309999257,42.33893309999257,,,,,,,,,,,,,,,,,,,,,,,,,,,,,,,,sdfs,sdfsd,2023-04-12_22h05.50.281,bandit task,2022.2.5,144.05838364813337,
7,0,7,0,,,,,,,,,,,,,,,,,42.33893309999257,42.33893309999257,42.33893309999257,42.33893309999257,42.33893309999257,p,0.13724319986067712,42.48477079998702,42.48477079998702,42.88787780003622,42.88787780003622,,,,,,,,,,,,,,,,,,,,,,,,,,,,,,,,sdfs,sdfsd,2023-04-12_22h05.50.281,bandit task,2022.2.5,144.05838364813337,
8,0,8,0,,,,,,,,,,,,,,,,,42.88787780003622,42.88787780003622,42.88787780003622,42.88787780003622,42.88787780003622,p,0.2130206001456827,43.10887819994241,43.10887819994241,43.5122573999688,43.5122573999688,,,,,,,,,,,,,,,,,,,,,,,,,,,,,,,,sdfs,sdfsd,2023-04-12_22h05.50.281,bandit task,2022.2.5,144.05838364813337,
9,0,9,0,,,,,,,,,,,,,,,,,43.5122573999688,43.5122573999688,43.5122573999688,43.5122573999688,43.5122573999688,p,0.23850210011005402,43.76069859997369,43.76069859997369,44.16524240002036,44.16524240002036,,,,,,,,,,,,,,,,,,,,,,,,,,,,,,,,sdfs,sdfsd,2023-04-12_22h05.50.281,bandit task,2022.2.5,144.05838364813337,
10,0,10,0,,,,,,,,,,,,,,,,,44.16524240002036,44.16524240002036,44.16524240002036,44.16524240002036,44.16524240002036,p,0.1812370999250561,44.3575955000706,44.3575955000706,44.762378700077534,44.762378700077534,,,,,,,,,,,,,,,,,,,,,,,,,,,,,,,,sdfs,sdfsd,2023-04-12_22h05.50.281,bandit task,2022.2.5,144.05838364813337,
11,0,11,0,,,,,,,,,,,,,,,,,44.762378700077534,44.762378700077534,44.762378700077534,44.762378700077534,44.762378700077534,q,0.2173041000496596,44.991424300009385,44.991424300009385,45.3944103999529,45.3944103999529,,,,,,,,,,,,,,,,,,,,,,,,,,,,,,,,sdfs,sdfsd,2023-04-12_22h05.50.281,bandit task,2022.2.5,144.05838364813337,
12,0,12,0,,,,,,,,,,,,,,,,,45.3944103999529,45.3944103999529,45.3944103999529,45.3944103999529,45.3944103999529,w,0.23240459989756346,45.636542400112376,45.636542400112376,46.039972899947315,46.039972899947315,,,,,,,,,,,,,,,,,,,,,,,,,,,,,,,,sdfs,sdfsd,2023-04-12_22h05.50.281,bandit task,2022.2.5,144.05838364813337,
13,0,13,0,,,,,,,,,,,,,,,,,46.039972899947315,46.039972899947315,46.039972899947315,46.039972899947315,46.039972899947315,w,0.2173189001623541,46.26811720011756,46.26811720011756,46.67202710011043,46.67202710011043,,,,,,,,,,,,,,,,,,,,,,,,,,,,,,,,sdfs,sdfsd,2023-04-12_22h05.50.281,bandit task,2022.2.5,144.05838364813337,
14,0,14,0,,,,,,,,,,,,,,,,,46.67202710011043,46.67202710011043,46.67202710011043,46.67202710011043,46.67202710011043,w,0.20831910008564591,46.88660580012947,46.88660580012947,47.29022899991833,47.29022899991833,,,,,,,,,,,,,,,,,,,,,,,,,,,,,,,,sdfs,sdfsd,2023-04-12_22h05.50.281,bandit task,2022.2.5,144.05838364813337,
15,0,15,0,,,,,,,,,,,,,,,,,47.29022899991833,47.29022899991833,47.29022899991833,47.29022899991833,47.29022899991833,o,0.20402010018005967,47.50528570008464,47.50528570008464,47.908665399998426,47.908665399998426,,,,,,,,,,,,,,,,,,,,,,,,,,,,,,,,sdfs,sdfsd,2023-04-12_22h05.50.281,bandit task,2022.2.5,144.05838364813337,
16,0,16,0,,,,,,,,,,,,,,,,,47.908665399998426,47.908665399998426,47.908665399998426,47.908665399998426,47.908665399998426,o,0.22584400000050664,48.14430240006186,48.14430240006186,48.54808269999921,48.54808269999921,,,,,,,,,,,,,,,,,,,,,,,,,,,,,,,,sdfs,sdfsd,2023-04-12_22h05.50.281,bandit task,2022.2.5,144.05838364813337,
17,0,17,0,,,,,,,,,,,,,,,,,48.54808269999921,48.54808269999921,48.54808269999921,48.54808269999921,48.54808269999921,o,0.22446099994704127,48.782471999991685,48.782471999991685,49.1857483999338,49.1857483999338,,,,,,,,,,,,,,,,,,,,,,,,,,,,,,,,sdfs,sdfsd,2023-04-12_22h05.50.281,bandit task,2022.2.5,144.05838364813337,
18,0,18,0,,,,,,,,,,,,,,,,,49.1857483999338,49.1857483999338,49.1857483999338,49.1857483999338,49.1857483999338,o,0.22754089999943972,49.42185809998773,49.42185809998773,49.82495669997297,49.82495669997297,,,,,,,,,,,,,,,,,,,,,,,,,,,,,,,,sdfs,sdfsd,2023-04-12_22h05.50.281,bandit task,2022.2.5,144.05838364813337,
19,0,19,0,,,,,,,,,,,,,,,,,49.82495669997297,49.82495669997297,49.82495669997297,49.82495669997297,49.82495669997297,p,0.20311150001361966,50.03992490004748,50.03992490004748,50.44273809995502,50.44273809995502,,,,,,,,,,,,,,,,,,,,,,,,,,,,,,,,sdfs,sdfsd,2023-04-12_22h05.50.281,bandit task,2022.2.5,144.05838364813337,
20,0,20,0,,,,,,,,,,,,,,,,,50.44273809995502,50.44273809995502,50.44273809995502,50.44273809995502,50.44273809995502,p,0.17364239995367825,50.622311000013724,50.622311000013724,51.02647270006128,51.02647270006128,,,,,,,,,,,,,,,,,,,,,,,,,,,,,,,,sdfs,sdfsd,2023-04-12_22h05.50.281,bandit task,2022.2.5,144.05838364813337,
21,0,21,0,,,,,,,,,,,,,,,,,51.02647270006128,51.02647270006128,51.02647270006128,51.02647270006128,51.02647270006128,p,0.2249476001597941,51.26117600011639,51.26117600011639,51.66521929996088,51.66521929996088,,,,,,,,,,,,,,,,,,,,,,,,,,,,,,,,sdfs,sdfsd,2023-04-12_22h05.50.281,bandit task,2022.2.5,144.05838364813337,
22,0,22,0,,,,,,,,,,,,,,,,,51.66521929996088,51.66521929996088,51.66521929996088,51.66521929996088,51.66521929996088,p,0.22073299996554852,51.894437100039795,51.894437100039795,52.29757110006176,52.29757110006176,,,,,,,,,,,,,,,,,,,,,,,,,,,,,,,,sdfs,sdfsd,2023-04-12_22h05.50.281,bandit task,2022.2.5,144.05838364813337,
23,0,23,0,,,,,,,,,,,,,,,,,52.29757110006176,52.29757110006176,52.29757110006176,52.29757110006176,52.29757110006176,q,0.2212478001601994,52.527054999955,52.527054999955,52.92928109993227,52.92928109993227,,,,,,,,,,,,,,,,,,,,,,,,,,,,,,,,sdfs,sdfsd,2023-04-12_22h05.50.281,bandit task,2022.2.5,144.05838364813337,
24,0,24,0,,,,,,,,,,,,,,,,,52.92928109993227,52.92928109993227,52.92928109993227,52.92928109993227,52.92928109993227,q,0.2651411001570523,53.20532459998503,53.20532459998503,53.60988410003483,53.60988410003483,,,,,,,,,,,,,,,,,,,,,,,,,,,,,,,,sdfs,sdfsd,2023-04-12_22h05.50.281,bandit task,2022.2.5,144.05838364813337,
25,0,25,0,,,,,,,,,,,,,,,,,53.60988410003483,53.60988410003483,53.60988410003483,53.60988410003483,53.60988410003483,q,0.24809050001204014,53.86653900006786,53.86653900006786,54.26912109996192,54.26912109996192,,,,,,,,,,,,,,,,,,,,,,,,,,,,,,,,sdfs,sdfsd,2023-04-12_22h05.50.281,bandit task,2022.2.5,144.05838364813337,
26,0,26,0,,,,,,,,,,,,,,,,,54.26912109996192,54.26912109996192,54.26912109996192,54.26912109996192,54.26912109996192,q,0.2222164999693632,54.49754130002111,54.49754130002111,54.90130829997361,54.90130829997361,,,,,,,,,,,,,,,,,,,,,,,,,,,,,,,,sdfs,sdfsd,2023-04-12_22h05.50.281,bandit task,2022.2.5,144.05838364813337,
27,0,27,0,,,,,,,,,,,,,,,,,54.90130829997361,54.90130829997361,54.90130829997361,54.90130829997361,54.90130829997361,w,0.15945939999073744,55.0671580999624,55.0671580999624,55.470898899948224,55.470898899948224,,,,,,,,,,,,,,,,,,,,,,,,,,,,,,,,sdfs,sdfsd,2023-04-12_22h05.50.281,bandit task,2022.2.5,144.05838364813337,
28,0,28,0,,,,,,,,,,,,,,,,,55.470898899948224,55.470898899948224,55.470898899948224,55.470898899948224,55.470898899948224,w,0.2466599999461323,55.72658829996362,55.72658829996362,56.130270099965855,56.130270099965855,,,,,,,,,,,,,,,,,,,,,,,,,,,,,,,,sdfs,sdfsd,2023-04-12_22h05.50.281,bandit task,2022.2.5,144.05838364813337,
29,0,29,0,,,,,,,,,,,,,,,,,56.130270099965855,56.130270099965855,56.130270099965855,56.130270099965855,56.130270099965855,w,0.2190243999939412,56.35906539997086,56.35906539997086,,,,,,,,,,,,,,,,,,,,,,,,,,,,,,,,,,sdfs,sdfsd,2023-04-12_22h05.50.281,bandit task,2022.2.5,144.05838364813337,
30,0,30,0,,,,,,,,,,,,,,,,,56.763210700126365,56.763210700126365,56.763210700126365,56.763210700126365,56.763210700126365,w,0.21097339992411435,56.983433600049466,56.983433600049466,57.387386000016704,57.387386000016704,,,,,,,,,,,,,,,,,,,,,,,,,,,,,,,,sdfs,sdfsd,2023-04-12_22h05.50.281,bandit task,2022.2.5,144.05838364813337,
31,0,31,0,,,,,,,,,,,,,,,,,57.387386000016704,57.387386000016704,57.387386000016704,57.387386000016704,57.387386000016704,o,0.22346449992619455,57.62221059994772,57.62221059994772,58.02639609994367,58.02639609994367,,,,,,,,,,,,,,,,,,,,,,,,,,,,,,,,sdfs,sdfsd,2023-04-12_22h05.50.281,bandit task,2022.2.5,144.05838364813337,
32,0,32,0,,,,,,,,,,,,,,,,,58.02639609994367,58.02639609994367,58.02639609994367,58.02639609994367,58.02639609994367,o,0.20767930010333657,58.24086580006406,58.24086580006406,58.644184600096196,58.644184600096196,,,,,,,,,,,,,,,,,,,,,,,,,,,,,,,,sdfs,sdfsd,2023-04-12_22h05.50.281,bandit task,2022.2.5,144.05838364813337,
33,0,33,0,,,,,,,,,,,,,,,,,58.644184600096196,58.644184600096196,58.644184600096196,58.644184600096196,58.644184600096196,p,0.2839364998508245,58.93376570008695,58.93376570008695,59.339102199999616,59.339102199999616,,,,,,,,,,,,,,,,,,,,,,,,,,,,,,,,sdfs,sdfsd,2023-04-12_22h05.50.281,bandit task,2022.2.5,144.05838364813337,
34,0,34,0,,,,,,,,,,,,,,,,,59.339102199999616,59.339102199999616,59.339102199999616,59.339102199999616,59.339102199999616,p,0.17820530012249947,59.52507600001991,59.52507600001991,59.929215600015596,59.929215600015596,,,,,,,,,,,,,,,,,,,,,,,,,,,,,,,,sdfs,sdfsd,2023-04-12_22h05.50.281,bandit task,2022.2.5,144.05838364813337,
35,0,35,0,,,,,,,,,,,,,,,,,59.929215600015596,59.929215600015596,59.929215600015596,59.929215600015596,59.929215600015596,p,0.1733296001330018,60.108909599948674,60.108909599948674,60.5122225000523,60.5122225000523,,,,,,,,,,,,,,,,,,,,,,,,,,,,,,,,sdfs,sdfsd,2023-04-12_22h05.50.281,bandit task,2022.2.5,144.05838364813337,
36,0,36,0,,,,,,,,,,,,,,,,,60.5122225000523,60.5122225000523,60.5122225000523,60.5122225000523,60.5122225000523,p,0.19472249993123114,60.71299439994618,60.71299439994618,61.116614300059155,61.116614300059155,,,,,,,,,,,,,,,,,,,,,,,,,,,,,,,,sdfs,sdfsd,2023-04-12_22h05.50.281,bandit task,2022.2.5,144.05838364813337,
37,0,37,0,,,,,,,,,,,,,,,,,61.116614300059155,61.116614300059155,61.116614300059155,61.116614300059155,61.116614300059155,q,0.1995312999933958,61.324068299960345,61.324068299960345,61.72791730007157,61.72791730007157,,,,,,,,,,,,,,,,,,,,,,,,,,,,,,,,sdfs,sdfsd,2023-04-12_22h05.50.281,bandit task,2022.2.5,144.05838364813337,
38,0,38,0,,,,,,,,,,,,,,,,,61.72791730007157,61.72791730007157,61.72791730007157,61.72791730007157,61.72791730007157,q,0.22013300005346537,61.95524420007132,61.95524420007132,62.3597776000388,62.3597776000388,,,,,,,,,,,,,,,,,,,,,,,,,,,,,,,,sdfs,sdfsd,2023-04-12_22h05.50.281,bandit task,2022.2.5,144.05838364813337,
39,0,39,0,,,,,,,,,,,,,,,,,62.3597776000388,62.3597776000388,62.3597776000388,62.3597776000388,62.3597776000388,w,0.21669579995796084,62.588262900011614,62.588262900011614,62.98971340013668,62.98971340013668,,,,,,,,,,,,,,,,,,,,,,,,,,,,,,,,sdfs,sdfsd,2023-04-12_22h05.50.281,bandit task,2022.2.5,144.05838364813337,
,,,,,,,,,,,,,,,,,,,,,,,,,,,,,,,62.98971340013668,62.98971340013668,space,0.8259669998660684,,,,,,,,,,,,,,,,,,,,,,,,,,,,sdfs,sdfsd,2023-04-12_22h05.50.281,bandit task,2022.2.5,144.05838364813337,
,,,,,,,,0,0,0,0,,,,,,,,,,,,,,,,,,,,,,,,63.82628719997592,63.82628719997592,63.82628719997592,63.82628719997592,63.82628719997592,63.82628719997592,63.82628719997592,63.82628719997592,63.82628719997592,q,0.3745589000172913,64.21272969990969,64.21272969990969,64.21272969990969,64.21272969990969,64.61650020000525,64.61650020000525,,,,,,,,,,,sdfs,sdfsd,2023-04-12_22h05.50.281,bandit task,2022.2.5,144.05838364813337,
,,,,,,,,1,0,1,0,,,,,,,,,,,,,,,,,,,,,,,,64.61650020000525,64.61650020000525,64.61650020000525,64.61650020000525,64.61650020000525,64.61650020000525,64.61650020000525,64.61650020000525,64.61650020000525,q,0.19285120000131428,64.81701299990527,64.81701299990527,64.81701299990527,64.81701299990527,65.22085899999365,65.22085899999365,,,,,,,,,,,sdfs,sdfsd,2023-04-12_22h05.50.281,bandit task,2022.2.5,144.05838364813337,
,,,,,,,,2,0,2,0,,,,,,,,,,,,,,,,,,,,,,,,65.22085899999365,65.22085899999365,65.22085899999365,65.22085899999365,65.22085899999365,65.22085899999365,65.22085899999365,65.22085899999365,65.22085899999365,q,0.18152810004539788,65.4139880000148,65.4139880000148,65.4139880000148,65.4139880000148,65.81860210001469,65.81860210001469,,,,,,,,,,,sdfs,sdfsd,2023-04-12_22h05.50.281,bandit task,2022.2.5,144.05838364813337,
,,,,,,,,3,0,3,0,,,,,,,,,,,,,,,,,,,,,,,,65.81860210001469,65.81860210001469,65.81860210001469,65.81860210001469,65.81860210001469,65.81860210001469,65.81860210001469,65.81860210001469,65.81860210001469,q,0.21763009997084737,66.0465587999206,66.0465587999206,66.0465587999206,66.0465587999206,66.44998229993507,66.44998229993507,,,,,,,,,,,sdfs,sdfsd,2023-04-12_22h05.50.281,bandit task,2022.2.5,144.05838364813337,
,,,,,,,,4,0,4,0,,,,,,,,,,,,,,,,,,,,,,,,66.44998229993507,66.44998229993507,66.44998229993507,66.44998229993507,66.44998229993507,66.44998229993507,66.44998229993507,66.44998229993507,66.44998229993507,q,0.215097599895671,66.67183239990845,66.67183239990845,66.67183239990845,66.67183239990845,67.07476330013014,67.07476330013014,,,,,,,,,,,sdfs,sdfsd,2023-04-12_22h05.50.281,bandit task,2022.2.5,144.05838364813337,
,,,,,,,,5,0,5,0,,,,,,,,,,,,,,,,,,,,,,,,67.07476330013014,67.07476330013014,67.07476330013014,67.07476330013014,67.07476330013014,67.07476330013014,67.07476330013014,67.07476330013014,67.07476330013014,p,0.23762669996358454,67.32394129992463,67.32394129992463,67.32394129992463,67.32394129992463,67.72784309997223,67.72784309997223,,,,,,,,,,,sdfs,sdfsd,2023-04-12_22h05.50.281,bandit task,2022.2.5,144.05838364813337,
,,,,,,,,6,0,6,0,,,,,,,,,,,,,,,,,,,,,,,,67.72784309997223,67.72784309997223,67.72784309997223,67.72784309997223,67.72784309997223,67.72784309997223,67.72784309997223,67.72784309997223,67.72784309997223,p,0.22010960010811687,67.974392300006,67.974392300006,67.974392300006,67.974392300006,68.38021510001272,68.38021510001272,,,,,,,,,,,sdfs,sdfsd,2023-04-12_22h05.50.281,bandit task,2022.2.5,144.05838364813337,
,,,,,,,,7,0,7,0,,,,,,,,,,,,,,,,,,,,,,,,68.38021510001272,68.38021510001272,68.38021510001272,68.38021510001272,68.38021510001272,68.38021510001272,68.38021510001272,68.38021510001272,68.38021510001272,p,0.20111260004341602,68.58655259991065,68.58655259991065,68.58655259991065,68.58655259991065,68.9915861999616,68.9915861999616,,,,,,,,,,,sdfs,sdfsd,2023-04-12_22h05.50.281,bandit task,2022.2.5,144.05838364813337,
,,,,,,,,8,0,8,0,,,,,,,,,,,,,,,,,,,,,,,,68.9915861999616,68.9915861999616,68.9915861999616,68.9915861999616,68.9915861999616,68.9915861999616,68.9915861999616,68.9915861999616,68.9915861999616,p,0.1579191000200808,69.15810599992983,69.15810599992983,69.15810599992983,69.15810599992983,69.56087630009279,69.56087630009279,,,,,,,,,,,sdfs,sdfsd,2023-04-12_22h05.50.281,bandit task,2022.2.5,144.05838364813337,
,,,,,,,,9,0,9,0,,,,,,,,,,,,,,,,,,,,,,,,69.56087630009279,69.56087630009279,69.56087630009279,69.56087630009279,69.56087630009279,69.56087630009279,69.56087630009279,69.56087630009279,69.56087630009279,p,0.14812500006519258,69.71906180004589,69.71906180004589,69.71906180004589,69.71906180004589,70.12339500011876,70.12339500011876,,,,,,,,,,,sdfs,sdfsd,2023-04-12_22h05.50.281,bandit task,2022.2.5,144.05838364813337,
,,,,,,,,10,0,10,0,,,,,,,,,,,,,,,,,,,,,,,,70.12339500011876,70.12339500011876,70.12339500011876,70.12339500011876,70.12339500011876,70.12339500011876,70.12339500011876,70.12339500011876,70.12339500011876,p,0.17874719994142652,70.30864830012433,70.30864830012433,70.30864830012433,70.30864830012433,70.71384490001947,70.71384490001947,,,,,,,,,,,sdfs,sdfsd,2023-04-12_22h05.50.281,bandit task,2022.2.5,144.05838364813337,
,,,,,,,,11,0,11,0,,,,,,,,,,,,,,,,,,,,,,,,70.71384490001947,70.71384490001947,70.71384490001947,70.71384490001947,70.71384490001947,70.71384490001947,70.71384490001947,70.71384490001947,70.71384490001947,p,0.19980740011669695,70.92170950002037,70.92170950002037,70.92170950002037,70.92170950002037,71.32466510008089,71.32466510008089,,,,,,,,,,,sdfs,sdfsd,2023-04-12_22h05.50.281,bandit task,2022.2.5,144.05838364813337,
,,,,,,,,12,0,12,0,,,,,,,,,,,,,,,,,,,,,,,,71.32466510008089,71.32466510008089,71.32466510008089,71.32466510008089,71.32466510008089,71.32466510008089,71.32466510008089,71.32466510008089,71.32466510008089,p,0.21558200009167194,71.54684330010787,71.54684330010787,71.54684330010787,71.54684330010787,71.95087529998273,71.95087529998273,,,,,,,,,,,sdfs,sdfsd,2023-04-12_22h05.50.281,bandit task,2022.2.5,144.05838364813337,
,,,,,,,,13,0,13,0,,,,,,,,,,,,,,,,,,,,,,,,71.95087529998273,71.95087529998273,71.95087529998273,71.95087529998273,71.95087529998273,71.95087529998273,71.95087529998273,71.95087529998273,71.95087529998273,p,0.20559020014479756,72.16461120010354,72.16461120010354,72.16461120010354,72.16461120010354,72.56807400006801,72.56807400006801,,,,,,,,,,,sdfs,sdfsd,2023-04-12_22h05.50.281,bandit task,2022.2.5,144.05838364813337,
,,,,,,,,14,0,14,0,,,,,,,,,,,,,,,,,,,,,,,,72.56807400006801,72.56807400006801,72.56807400006801,72.56807400006801,72.56807400006801,72.56807400006801,72.56807400006801,72.56807400006801,72.56807400006801,q,0.022128499811515212,72.6010267001111,72.6010267001111,72.6010267001111,72.6010267001111,73.00534850009717,73.00534850009717,,,,,,,,,,,sdfs,sdfsd,2023-04-12_22h05.50.281,bandit task,2022.2.5,144.05838364813337,
,,,,,,,,15,0,15,0,,,,,,,,,,,,,,,,,,,,,,,,73.00534850009717,73.00534850009717,73.00534850009717,73.00534850009717,73.00534850009717,73.00534850009717,73.00534850009717,73.00534850009717,73.00534850009717,p,0.0722938000690192,73.08755280007608,73.08755280007608,73.08755280007608,73.08755280007608,73.4917381000705,73.4917381000705,,,,,,,,,,,sdfs,sdfsd,2023-04-12_22h05.50.281,bandit task,2022.2.5,144.05838364813337,
,,,,,,,,16,0,16,0,,,,,,,,,,,,,,,,,,,,,,,,73.4917381000705,73.4917381000705,73.4917381000705,73.4917381000705,73.4917381000705,73.4917381000705,73.4917381000705,73.4917381000705,73.4917381000705,q,0.06914219981990755,73.5676122000441,73.5676122000441,73.5676122000441,73.5676122000441,73.97037869994529,73.97037869994529,,,,,,,,,,,sdfs,sdfsd,2023-04-12_22h05.50.281,bandit task,2022.2.5,144.05838364813337,
,,,,,,,,17,0,17,0,,,,,,,,,,,,,,,,,,,,,,,,73.97037869994529,73.97037869994529,73.97037869994529,73.97037869994529,73.97037869994529,73.97037869994529,73.97037869994529,73.97037869994529,73.97037869994529,None,,74.96934229996987,75.37371279997751,74.96934229996987,74.96934229996987,74.96934229996987,75.37371279997751,74.96934229996987,74.96934229996987,74.96934229996987,74.96934229996987,74.96934229996987,74.96934229996987,74.96934229996987,74.96934229996987,74.96934229996987,,sdfs,sdfsd,2023-04-12_22h05.50.281,bandit task,2022.2.5,144.05838364813337,
,,,,,,,,18,0,18,0,,,,,,,,,,,,,,,,,,,,,,,,75.37371279997751,75.37371279997751,75.37371279997751,75.37371279997751,75.37371279997751,75.37371279997751,75.37371279997751,75.37371279997751,75.37371279997751,q,0.2757510000374168,75.65678830002435,75.65678830002435,75.65678830002435,75.65678830002435,76.06106050009839,76.06106050009839,,,,,,,,,,,sdfs,sdfsd,2023-04-12_22h05.50.281,bandit task,2022.2.5,144.05838364813337,
,,,,,,,,19,0,19,0,,,,,,,,,,,,,,,,,,,,,,,,76.06106050009839,76.06106050009839,76.06106050009839,76.06106050009839,76.06106050009839,76.06106050009839,76.06106050009839,76.06106050009839,76.06106050009839,p,0.2347160999197513,76.3038856999483,76.3038856999483,76.3038856999483,76.3038856999483,76.7069522999227,76.7069522999227,,,,,,,,,,,sdfs,sdfsd,2023-04-12_22h05.50.281,bandit task,2022.2.5,144.05838364813337,
,,,,,,,,20,0,20,0,,,,,,,,,,,,,,,,,,,,,,,,76.7069522999227,76.7069522999227,76.7069522999227,76.7069522999227,76.7069522999227,76.7069522999227,76.7069522999227,76.7069522999227,76.7069522999227,q,0.1687827999703586,76.88653780007735,76.88653780007735,76.88653780007735,76.88653780007735,77.2899955001194,77.2899955001194,,,,,,,,,,,sdfs,sdfsd,2023-04-12_22h05.50.281,bandit task,2022.2.5,144.05838364813337,
,,,,,,,,21,0,21,0,,,,,,,,,,,,,,,,,,,,,,,,77.2899955001194,77.2899955001194,77.2899955001194,77.2899955001194,77.2899955001194,77.2899955001194,77.2899955001194,77.2899955001194,77.2899955001194,p,0.20938600017689168,77.5109743999783,77.5109743999783,77.5109743999783,77.5109743999783,77.91520599997602,77.91520599997602,,,,,,,,,,,sdfs,sdfsd,2023-04-12_22h05.50.281,bandit task,2022.2.5,144.05838364813337,
,,,,,,,,22,0,22,0,,,,,,,,,,,,,,,,,,,,,,,,77.91520599997602,77.91520599997602,77.91520599997602,77.91520599997602,77.91520599997602,77.91520599997602,77.91520599997602,77.91520599997602,77.91520599997602,w,0.7653143000788987,78.69209280004725,78.69209280004725,78.69209280004725,78.69209280004725,79.09573010005988,79.09573010005988,,,,,,,,,,,sdfs,sdfsd,2023-04-12_22h05.50.281,bandit task,2022.2.5,144.05838364813337,
,,,,,,,,23,0,23,0,,,,,,,,,,,,,,,,,,,,,,,,79.09573010005988,79.09573010005988,79.09573010005988,79.09573010005988,79.09573010005988,79.09573010005988,79.09573010005988,79.09573010005988,79.09573010005988,o,0.1928729999344796,79.2969224001281,79.2969224001281,79.2969224001281,79.2969224001281,79.70019500004128,79.70019500004128,,,,,,,,,,,sdfs,sdfsd,2023-04-12_22h05.50.281,bandit task,2022.2.5,144.05838364813337,
,,,,,,,,24,0,24,0,,,,,,,,,,,,,,,,,,,,,,,,79.70019500004128,79.70019500004128,79.70019500004128,79.70019500004128,79.70019500004128,79.70019500004128,79.70019500004128,79.70019500004128,79.70019500004128,q,0.17823680001311004,79.88633080013096,79.88633080013096,79.88633080013096,79.88633080013096,80.29017239995301,80.29017239995301,,,,,,,,,,,sdfs,sdfsd,2023-04-12_22h05.50.281,bandit task,2022.2.5,144.05838364813337,
,,,,,,,,25,0,25,0,,,,,,,,,,,,,,,,,,,,,,,,80.29017239995301,80.29017239995301,80.29017239995301,80.29017239995301,80.29017239995301,80.29017239995301,80.29017239995301,80.29017239995301,80.29017239995301,p,0.22384990006685257,80.52399699995294,80.52399699995294,80.52399699995294,80.52399699995294,80.92932210001163,80.92932210001163,,,,,,,,,,,sdfs,sdfsd,2023-04-12_22h05.50.281,bandit task,2022.2.5,144.05838364813337,
,,,,,,,,26,0,26,0,,,,,,,,,,,,,,,,,,,,,,,,80.92932210001163,80.92932210001163,80.92932210001163,80.92932210001163,80.92932210001163,80.92932210001163,80.92932210001163,80.92932210001163,80.92932210001163,w,0.17488310020416975,81.1156212000642,81.1156212000642,81.1156212000642,81.1156212000642,81.51944319996983,81.51944319996983,,,,,,,,,,,sdfs,sdfsd,2023-04-12_22h05.50.281,bandit task,2022.2.5,144.05838364813337,
,,,,,,,,27,0,27,0,,,,,,,,,,,,,,,,,,,,,,,,81.51944319996983,81.51944319996983,81.51944319996983,81.51944319996983,81.51944319996983,81.51944319996983,81.51944319996983,81.51944319996983,81.51944319996983,o,0.17320869979448617,81.6986170001328,81.6986170001328,81.6986170001328,81.6986170001328,82.10277050011791,82.10277050011791,,,,,,,,,,,sdfs,sdfsd,2023-04-12_22h05.50.281,bandit task,2022.2.5,144.05838364813337,
,,,,,,,,28,0,28,0,,,,,,,,,,,,,,,,,,,,,,,,82.10277050011791,82.10277050011791,82.10277050011791,82.10277050011791,82.10277050011791,82.10277050011791,82.10277050011791,82.10277050011791,82.10277050011791,q,0.599901600042358,82.71282160002738,82.71282160002738,82.71282160002738,82.71282160002738,83.116710399976,83.116710399976,,,,,,,,,,,sdfs,sdfsd,2023-04-12_22h05.50.281,bandit task,2022.2.5,144.05838364813337,
,,,,,,,,29,0,29,0,,,,,,,,,,,,,,,,,,,,,,,,83.116710399976,83.116710399976,83.116710399976,83.116710399976,83.116710399976,83.116710399976,83.116710399976,83.116710399976,83.116710399976,p,0.2646576000843197,83.39338549994864,83.39338549994864,83.39338549994864,83.39338549994864,83.79734140005894,83.79734140005894,,,,,,,,,,,sdfs,sdfsd,2023-04-12_22h05.50.281,bandit task,2022.2.5,144.05838364813337,
,,,,,,,,30,0,30,0,,,,,,,,,,,,,,,,,,,,,,,,83.79734140005894,83.79734140005894,83.79734140005894,83.79734140005894,83.79734140005894,83.79734140005894,83.79734140005894,83.79734140005894,83.79734140005894,w,0.26170639996416867,84.06756190001033,84.06756190001033,84.06756190001033,84.06756190001033,84.47071849997155,84.47071849997155,,,,,,,,,,,sdfs,sdfsd,2023-04-12_22h05.50.281,bandit task,2022.2.5,144.05838364813337,
,,,,,,,,31,0,31,0,,,,,,,,,,,,,,,,,,,,,,,,84.47071849997155,84.47071849997155,84.47071849997155,84.47071849997155,84.47071849997155,84.47071849997155,84.47071849997155,84.47071849997155,84.47071849997155,o,0.23081729980185628,84.71287990012206,84.71287990012206,84.71287990012206,84.71287990012206,85.11656700004824,85.11656700004824,,,,,,,,,,,sdfs,sdfsd,2023-04-12_22h05.50.281,bandit task,2022.2.5,144.05838364813337,
,,,,,,,,32,0,32,0,,,,,,,,,,,,,,,,,,,,,,,,85.11656700004824,85.11656700004824,85.11656700004824,85.11656700004824,85.11656700004824,85.11656700004824,85.11656700004824,85.11656700004824,85.11656700004824,q,0.22813579998910427,85.35130199999548,85.35130199999548,85.35130199999548,85.35130199999548,85.75527939992025,85.75527939992025,,,,,,,,,,,sdfs,sdfsd,2023-04-12_22h05.50.281,bandit task,2022.2.5,144.05838364813337,
,,,,,,,,33,0,33,0,,,,,,,,,,,,,,,,,,,,,,,,85.75527939992025,85.75527939992025,85.75527939992025,85.75527939992025,85.75527939992025,85.75527939992025,85.75527939992025,85.75527939992025,85.75527939992025,p,0.2761461001355201,86.0397660001181,86.0397660001181,86.0397660001181,86.0397660001181,86.44267280003987,86.44267280003987,,,,,,,,,,,sdfs,sdfsd,2023-04-12_22h05.50.281,bandit task,2022.2.5,144.05838364813337,
,,,,,,,,34,0,34,0,,,,,,,,,,,,,,,,,,,,,,,,86.44267280003987,86.44267280003987,86.44267280003987,86.44267280003987,86.44267280003987,86.44267280003987,86.44267280003987,86.44267280003987,86.44267280003987,w,0.2539729999843985,86.70591180003248,86.70591180003248,86.70591180003248,86.70591180003248,87.10972240008414,87.10972240008414,,,,,,,,,,,sdfs,sdfsd,2023-04-12_22h05.50.281,bandit task,2022.2.5,144.05838364813337,
,,,,,,,,35,0,35,0,,,,,,,,,,,,,,,,,,,,,,,,87.10972240008414,87.10972240008414,87.10972240008414,87.10972240008414,87.10972240008414,87.10972240008414,87.10972240008414,87.10972240008414,87.10972240008414,o,0.20001340005546808,87.31875560013577,87.31875560013577,87.31875560013577,87.31875560013577,87.72079650009982,87.72079650009982,,,,,,,,,,,sdfs,sdfsd,2023-04-12_22h05.50.281,bandit task,2022.2.5,144.05838364813337,
,,,,,,,,36,0,36,0,,,,,,,,,,,,,,,,,,,,,,,,87.72079650009982,87.72079650009982,87.72079650009982,87.72079650009982,87.72079650009982,87.72079650009982,87.72079650009982,87.72079650009982,87.72079650009982,q,0.20798870013095438,87.93553430004977,87.93553430004977,87.93553430004977,87.93553430004977,88.33905830001459,88.33905830001459,,,,,,,,,,,sdfs,sdfsd,2023-04-12_22h05.50.281,bandit task,2022.2.5,144.05838364813337,
,,,,,,,,37,0,37,0,,,,,,,,,,,,,,,,,,,,,,,,88.33905830001459,88.33905830001459,88.33905830001459,88.33905830001459,88.33905830001459,88.33905830001459,88.33905830001459,88.33905830001459,88.33905830001459,p,0.2288589000236243,88.57397389994003,88.57397389994003,88.57397389994003,88.57397389994003,88.97797950007953,88.97797950007953,,,,,,,,,,,sdfs,sdfsd,2023-04-12_22h05.50.281,bandit task,2022.2.5,144.05838364813337,
,,,,,,,,38,0,38,0,,,,,,,,,,,,,,,,,,,,,,,,88.97797950007953,88.97797950007953,88.97797950007953,88.97797950007953,88.97797950007953,88.97797950007953,88.97797950007953,88.97797950007953,88.97797950007953,w,0.1453895999584347,89.12952250009403,89.12952250009403,89.12952250009403,89.12952250009403,89.53320190007798,89.53320190007798,,,,,,,,,,,sdfs,sdfsd,2023-04-12_22h05.50.281,bandit task,2022.2.5,144.05838364813337,
,,,,,,,,39,0,39,0,,,,,,,,,,,,,,,,,,,,,,,,89.53320190007798,89.53320190007798,89.53320190007798,89.53320190007798,89.53320190007798,89.53320190007798,89.53320190007798,89.53320190007798,89.53320190007798,o,0.1511254000943154,89.6927245000843,89.6927245000843,89.6927245000843,89.6927245000843,90.09662399999797,90.09662399999797,,,,,,,,,,,sdfs,sdfsd,2023-04-12_22h05.50.281,bandit task,2022.2.5,144.05838364813337,
,,,,,,,,,,,,,,,,,,,,,,,,,,,,,,,,,,,,,,,,,,,,,,,,,,,,,,,,,,,,,90.09662399999797,,,,,,,
