utrials.thisRepN,utrials.thisTrialN,utrials.thisN,utrials.thisIndex,trials_2.thisRepN,trials_2.thisTrialN,trials_2.thisN,trials_2.thisIndex,trials.thisRepN,trials.thisTrialN,trials.thisN,trials.thisIndex,trials_3.thisRepN,trials_3.thisTrialN,trials_3.thisN,trials_3.thisIndex,uIntrotext.started,uenter_resp.started,uenter_resp.keys,uenter_resp.rt,ukey_resp.started,Q.started,W.started,O.started,P.started,ukey_resp.keys,ukey_resp.rt,sad1.started,text_3.started,sad1.stopped,text_3.stopped,text_8.started,key_resp_5.started,key_resp_5.keys,key_resp_5.rt,text.started,enterresp.started,enterresp.keys,enterresp.rt,Optionq.started,optionw.started,optiono.started,Optionp.started,key_resp.started,Ql.started,Wl.started,Ol.started,Pl.started,key_resp.keys,key_resp.rt,clk.started,clk.stopped,sad.started,text_2.started,sad.stopped,text_2.stopped,text_9.started,key_resp_4.started,key_resp_4.keys,key_resp_4.rt,Optionq.stopped,optionw.stopped,optiono.stopped,Optionp.stopped,key_resp.stopped,Ql.stopped,Wl.stopped,Ol.stopped,Pl.stopped,text_4.started,Roll Number,Name,date,expName,psychopyVersion,frameRate,
,,,,,,,,,,,,,,,,20.057768900180236,20.057768900180236,space,1.4572860999032855,,,,,,,,,,,,,,,,,,,,,,,,,,,,,,,,,,,,,,,,,,,,,,,,,,,12312,sdfsdfs,2023-04-13_19h18.40.037,bandit task,2022.2.5,143.83046401651688,
0,0,0,0,,,,,,,,,,,,,,,,,21.55157280014828,21.55157280014828,21.55157280014828,21.55157280014828,21.55157280014828,q,1.0611916000489146,22.63868760014884,22.63868760014884,,,,,,,,,,,,,,,,,,,,,,,,,,,,,,,,,,,,,,,,,,12312,sdfsdfs,2023-04-13_19h18.40.037,bandit task,2022.2.5,143.83046401651688,
1,0,1,0,,,,,,,,,,,,,,,,,23.03170430008322,23.03170430008322,23.03170430008322,23.03170430008322,23.03170430008322,w,0.35371650010347366,23.398719600168988,23.398719600168988,,,,,,,,,,,,,,,,,,,,,,,,,,,,,,,,,,,,,,,,,,12312,sdfsdfs,2023-04-13_19h18.40.037,bandit task,2022.2.5,143.83046401651688,
2,0,2,0,,,,,,,,,,,,,,,,,23.80221990006976,23.80221990006976,23.80221990006976,23.80221990006976,23.80221990006976,o,0.21107279998250306,24.03150900010951,24.03150900010951,,,,,,,,,,,,,,,,,,,,,,,,,,,,,,,,,,,,,,,,,,12312,sdfsdfs,2023-04-13_19h18.40.037,bandit task,2022.2.5,143.83046401651688,
3,0,3,0,,,,,,,,,,,,,,,,,24.434843300143257,24.434843300143257,24.434843300143257,24.434843300143257,24.434843300143257,p,0.09339709999039769,24.547664300072938,24.547664300072938,,,,,,,,,,,,,,,,,,,,,,,,,,,,,,,,,,,,,,,,,,12312,sdfsdfs,2023-04-13_19h18.40.037,bandit task,2022.2.5,143.83046401651688,
4,0,4,0,,,,,,,,,,,,,,,,,24.94790320005268,24.94790320005268,24.94790320005268,24.94790320005268,24.94790320005268,o,0.12478159996680915,25.083074600202963,25.083074600202963,,,,,,,,,,,,,,,,,,,,,,,,,,,,,,,,,,,,,,,,,,12312,sdfsdfs,2023-04-13_19h18.40.037,bandit task,2022.2.5,143.83046401651688,
5,0,5,0,,,,,,,,,,,,,,,,,25.48983610002324,25.48983610002324,25.48983610002324,25.48983610002324,25.48983610002324,p,0.09245200012810528,25.594420600216836,25.594420600216836,25.996441000141203,25.996441000141203,,,,,,,,,,,,,,,,,,,,,,,,,,,,,,,,,,,,,,,,12312,sdfsdfs,2023-04-13_19h18.40.037,bandit task,2022.2.5,143.83046401651688,
6,0,6,0,,,,,,,,,,,,,,,,,25.996441000141203,25.996441000141203,25.996441000141203,25.996441000141203,25.996441000141203,w,0.012379199964925647,26.021310300100595,26.021310300100595,,,,,,,,,,,,,,,,,,,,,,,,,,,,,,,,,,,,,,,,,,12312,sdfsdfs,2023-04-13_19h18.40.037,bandit task,2022.2.5,143.83046401651688,
7,0,7,0,,,,,,,,,,,,,,,,,26.42762350011617,26.42762350011617,26.42762350011617,26.42762350011617,26.42762350011617,o,0.01869919989258051,26.456192000070587,26.456192000070587,,,,,,,,,,,,,,,,,,,,,,,,,,,,,,,,,,,,,,,,,,12312,sdfsdfs,2023-04-13_19h18.40.037,bandit task,2022.2.5,143.83046401651688,
8,0,8,0,,,,,,,,,,,,,,,,,26.864548100158572,26.864548100158572,26.864548100158572,26.864548100158572,26.864548100158572,p,0.35224110004492104,27.22869690018706,27.22869690018706,,,,,,,,,,,,,,,,,,,,,,,,,,,,,,,,,,,,,,,,,,12312,sdfsdfs,2023-04-13_19h18.40.037,bandit task,2022.2.5,143.83046401651688,
9,0,9,0,,,,,,,,,,,,,,,,,27.635828900150955,27.635828900150955,27.635828900150955,27.635828900150955,27.635828900150955,w,0.31414159992709756,27.95985470013693,27.95985470013693,28.36451780004427,28.36451780004427,,,,,,,,,,,,,,,,,,,,,,,,,,,,,,,,,,,,,,,,12312,sdfsdfs,2023-04-13_19h18.40.037,bandit task,2022.2.5,143.83046401651688,
10,0,10,0,,,,,,,,,,,,,,,,,28.36451780004427,28.36451780004427,28.36451780004427,28.36451780004427,28.36451780004427,o,0.22234670002944767,28.600254700053483,28.600254700053483,,,,,,,,,,,,,,,,,,,,,,,,,,,,,,,,,,,,,,,,,,12312,sdfsdfs,2023-04-13_19h18.40.037,bandit task,2022.2.5,143.83046401651688,
11,0,11,0,,,,,,,,,,,,,,,,,29.003781500039622,29.003781500039622,29.003781500039622,29.003781500039622,29.003781500039622,q,0.17540579987689853,29.194833500077948,29.194833500077948,,,,,,,,,,,,,,,,,,,,,,,,,,,,,,,,,,,,,,,,,,12312,sdfsdfs,2023-04-13_19h18.40.037,bandit task,2022.2.5,143.83046401651688,
12,0,12,0,,,,,,,,,,,,,,,,,29.60102770011872,29.60102770011872,29.60102770011872,29.60102770011872,29.60102770011872,p,0.19576670019887388,29.810236700112,29.810236700112,30.212559000123292,30.212559000123292,,,,,,,,,,,,,,,,,,,,,,,,,,,,,,,,,,,,,,,,12312,sdfsdfs,2023-04-13_19h18.40.037,bandit task,2022.2.5,143.83046401651688,
13,0,13,0,,,,,,,,,,,,,,,,,30.212559000123292,30.212559000123292,30.212559000123292,30.212559000123292,30.212559000123292,w,0.1518578000832349,30.373979600146413,30.373979600146413,,,,,,,,,,,,,,,,,,,,,,,,,,,,,,,,,,,,,,,,,,12312,sdfsdfs,2023-04-13_19h18.40.037,bandit task,2022.2.5,143.83046401651688,
14,0,14,0,,,,,,,,,,,,,,,,,30.781359900021926,30.781359900021926,30.781359900021926,30.781359900021926,30.781359900021926,o,0.23395229992456734,31.02472690003924,31.02472690003924,31.42774850013666,31.42774850013666,,,,,,,,,,,,,,,,,,,,,,,,,,,,,,,,,,,,,,,,12312,sdfsdfs,2023-04-13_19h18.40.037,bandit task,2022.2.5,143.83046401651688,
15,0,15,0,,,,,,,,,,,,,,,,,31.42774850013666,31.42774850013666,31.42774850013666,31.42774850013666,31.42774850013666,q,0.16747440001927316,31.608267900068313,31.608267900068313,32.010901800123975,32.010901800123975,,,,,,,,,,,,,,,,,,,,,,,,,,,,,,,,,,,,,,,,12312,sdfsdfs,2023-04-13_19h18.40.037,bandit task,2022.2.5,143.83046401651688,
16,0,16,0,,,,,,,,,,,,,,,,,32.010901800123975,32.010901800123975,32.010901800123975,32.010901800123975,32.010901800123975,p,0.1828157000709325,32.20730940019712,32.20730940019712,,,,,,,,,,,,,,,,,,,,,,,,,,,,,,,,,,,,,,,,,,12312,sdfsdfs,2023-04-13_19h18.40.037,bandit task,2022.2.5,143.83046401651688,
17,0,17,0,,,,,,,,,,,,,,,,,32.61497320001945,32.61497320001945,32.61497320001945,32.61497320001945,32.61497320001945,w,0.09860939998179674,32.72640350018628,32.72640350018628,33.12857530009933,33.12857530009933,,,,,,,,,,,,,,,,,,,,,,,,,,,,,,,,,,,,,,,,12312,sdfsdfs,2023-04-13_19h18.40.037,bandit task,2022.2.5,143.83046401651688,
18,0,18,0,,,,,,,,,,,,,,,,,33.12857530009933,33.12857530009933,33.12857530009933,33.12857530009933,33.12857530009933,o,0.12008729996159673,33.26235380000435,33.26235380000435,,,,,,,,,,,,,,,,,,,,,,,,,,,,,,,,,,,,,,,,,,12312,sdfsdfs,2023-04-13_19h18.40.037,bandit task,2022.2.5,143.83046401651688,
19,0,19,0,,,,,,,,,,,,,,,,,33.67069669999182,33.67069669999182,33.67069669999182,33.67069669999182,33.67069669999182,q,0.12041969993151724,33.80313860019669,33.80313860019669,34.204757100204006,34.204757100204006,,,,,,,,,,,,,,,,,,,,,,,,,,,,,,,,,,,,,,,,12312,sdfsdfs,2023-04-13_19h18.40.037,bandit task,2022.2.5,143.83046401651688,
20,0,20,0,,,,,,,,,,,,,,,,,34.204757100204006,34.204757100204006,34.204757100204006,34.204757100204006,34.204757100204006,p,0.08603949984535575,34.30566740012728,34.30566740012728,,,,,,,,,,,,,,,,,,,,,,,,,,,,,,,,,,,,,,,,,,12312,sdfsdfs,2023-04-13_19h18.40.037,bandit task,2022.2.5,143.83046401651688,
21,0,21,0,,,,,,,,,,,,,,,,,34.71282980008982,34.71282980008982,34.71282980008982,34.71282980008982,34.71282980008982,w,0.06906510004773736,34.79513350012712,34.79513350012712,35.19820720003918,35.19820720003918,,,,,,,,,,,,,,,,,,,,,,,,,,,,,,,,,,,,,,,,12312,sdfsdfs,2023-04-13_19h18.40.037,bandit task,2022.2.5,143.83046401651688,
22,0,22,0,,,,,,,,,,,,,,,,,35.19820720003918,35.19820720003918,35.19820720003918,35.19820720003918,35.19820720003918,p,0.4996036000084132,35.71052550012246,35.71052550012246,,,,,,,,,,,,,,,,,,,,,,,,,,,,,,,,,,,,,,,,,,12312,sdfsdfs,2023-04-13_19h18.40.037,bandit task,2022.2.5,143.83046401651688,
23,0,23,0,,,,,,,,,,,,,,,,,36.114736000075936,36.114736000075936,36.114736000075936,36.114736000075936,36.114736000075936,q,0.10921319993212819,36.23425970016979,36.23425970016979,,,,,,,,,,,,,,,,,,,,,,,,,,,,,,,,,,,,,,,,,,12312,sdfsdfs,2023-04-13_19h18.40.037,bandit task,2022.2.5,143.83046401651688,
24,0,24,0,,,,,,,,,,,,,,,,,36.643414500169456,36.643414500169456,36.643414500169456,36.643414500169456,36.643414500169456,o,0.0841383000370115,36.740945000201464,36.740945000201464,37.14256920013577,37.14256920013577,,,,,,,,,,,,,,,,,,,,,,,,,,,,,,,,,,,,,,,,12312,sdfsdfs,2023-04-13_19h18.40.037,bandit task,2022.2.5,143.83046401651688,
25,0,25,0,,,,,,,,,,,,,,,,,37.14256920013577,37.14256920013577,37.14256920013577,37.14256920013577,37.14256920013577,w,0.04702860000543296,37.20015799999237,37.20015799999237,,,,,,,,,,,,,,,,,,,,,,,,,,,,,,,,,,,,,,,,,,12312,sdfsdfs,2023-04-13_19h18.40.037,bandit task,2022.2.5,143.83046401651688,
26,0,26,0,,,,,,,,,,,,,,,,,37.607736400095746,37.607736400095746,37.607736400095746,37.607736400095746,37.607736400095746,p,0.08146960008889437,37.699560000095516,37.699560000095516,,,,,,,,,,,,,,,,,,,,,,,,,,,,,,,,,,,,,,,,,,12312,sdfsdfs,2023-04-13_19h18.40.037,bandit task,2022.2.5,143.83046401651688,
27,0,27,0,,,,,,,,,,,,,,,,,38.107377000153065,38.107377000153065,38.107377000153065,38.107377000153065,38.107377000153065,q,0.05746109993197024,38.17907670000568,38.17907670000568,,,,,,,,,,,,,,,,,,,,,,,,,,,,,,,,,,,,,,,,,,12312,sdfsdfs,2023-04-13_19h18.40.037,bandit task,2022.2.5,143.83046401651688,
28,0,28,0,,,,,,,,,,,,,,,,,38.58707350003533,38.58707350003533,38.58707350003533,38.58707350003533,38.58707350003533,o,0.04103720001876354,38.63672260008752,38.63672260008752,39.03789920010604,39.03789920010604,,,,,,,,,,,,,,,,,,,,,,,,,,,,,,,,,,,,,,,,12312,sdfsdfs,2023-04-13_19h18.40.037,bandit task,2022.2.5,143.83046401651688,
29,0,29,0,,,,,,,,,,,,,,,,,39.03789920010604,39.03789920010604,39.03789920010604,39.03789920010604,39.03789920010604,w,0.023343299981206656,39.07579020014964,39.07579020014964,,,,,,,,,,,,,,,,,,,,,,,,,,,,,,,,,,,,,,,,,,12312,sdfsdfs,2023-04-13_19h18.40.037,bandit task,2022.2.5,143.83046401651688,
30,0,30,0,,,,,,,,,,,,,,,,,39.483511300059035,39.483511300059035,39.483511300059035,39.483511300059035,39.483511300059035,q,0.44442999991588295,39.94234860013239,39.94234860013239,40.34389460016973,40.34389460016973,,,,,,,,,,,,,,,,,,,,,,,,,,,,,,,,,,,,,,,,12312,sdfsdfs,2023-04-13_19h18.40.037,bandit task,2022.2.5,143.83046401651688,
31,0,31,0,,,,,,,,,,,,,,,,,40.34389460016973,40.34389460016973,40.34389460016973,40.34389460016973,40.34389460016973,o,0.11488069989718497,40.47028590016998,40.47028590016998,,,,,,,,,,,,,,,,,,,,,,,,,,,,,,,,,,,,,,,,,,12312,sdfsdfs,2023-04-13_19h18.40.037,bandit task,2022.2.5,143.83046401651688,
32,0,32,0,,,,,,,,,,,,,,,,,40.87868650001474,40.87868650001474,40.87868650001474,40.87868650001474,40.87868650001474,w,0.024197899969294667,40.91548030008562,40.91548030008562,,,,,,,,,,,,,,,,,,,,,,,,,,,,,,,,,,,,,,,,,,12312,sdfsdfs,2023-04-13_19h18.40.037,bandit task,2022.2.5,143.83046401651688,
33,0,33,0,,,,,,,,,,,,,,,,,41.322868100134656,41.322868100134656,41.322868100134656,41.322868100134656,41.322868100134656,p,0.025407900102436543,41.36190710007213,41.36190710007213,,,,,,,,,,,,,,,,,,,,,,,,,,,,,,,,,,,,,,,,,,12312,sdfsdfs,2023-04-13_19h18.40.037,bandit task,2022.2.5,143.83046401651688,
34,0,34,0,,,,,,,,,,,,,,,,,41.767560000065714,41.767560000065714,41.767560000065714,41.767560000065714,41.767560000065714,q,0.34994470002129674,42.132072400068864,42.132072400068864,,,,,,,,,,,,,,,,,,,,,,,,,,,,,,,,,,,,,,,,,,12312,sdfsdfs,2023-04-13_19h18.40.037,bandit task,2022.2.5,143.83046401651688,
35,0,35,0,,,,,,,,,,,,,,,,,42.538655600044876,42.538655600044876,42.538655600044876,42.538655600044876,42.538655600044876,o,0.04054129985161126,42.58755570021458,42.58755570021458,42.990396400215104,42.990396400215104,,,,,,,,,,,,,,,,,,,,,,,,,,,,,,,,,,,,,,,,12312,sdfsdfs,2023-04-13_19h18.40.037,bandit task,2022.2.5,143.83046401651688,
36,0,36,0,,,,,,,,,,,,,,,,,42.990396400215104,42.990396400215104,42.990396400215104,42.990396400215104,42.990396400215104,w,0.018900600029155612,43.019749800208956,43.019749800208956,,,,,,,,,,,,,,,,,,,,,,,,,,,,,,,,,,,,,,,,,,12312,sdfsdfs,2023-04-13_19h18.40.037,bandit task,2022.2.5,143.83046401651688,
37,0,37,0,,,,,,,,,,,,,,,,,43.4273189001251,43.4273189001251,43.4273189001251,43.4273189001251,43.4273189001251,p,0.030305699910968542,43.46966770011932,43.46966770011932,43.87197219999507,43.87197219999507,,,,,,,,,,,,,,,,,,,,,,,,,,,,,,,,,,,,,,,,12312,sdfsdfs,2023-04-13_19h18.40.037,bandit task,2022.2.5,143.83046401651688,
38,0,38,0,,,,,,,,,,,,,,,,,43.87197219999507,43.87197219999507,43.87197219999507,43.87197219999507,43.87197219999507,q,0.35351160005666316,44.23360540019348,44.23360540019348,44.635398500133306,44.635398500133306,,,,,,,,,,,,,,,,,,,,,,,,,,,,,,,,,,,,,,,,12312,sdfsdfs,2023-04-13_19h18.40.037,bandit task,2022.2.5,143.83046401651688,
39,0,39,0,,,,,,,,,,,,,,,,,44.635398500133306,44.635398500133306,44.635398500133306,44.635398500133306,44.635398500133306,o,0.05570649984292686,44.70289060007781,44.70289060007781,,,,,,,,,,,,,,,,,,,,,,,,,,,,,,,,,,,,,,,,,,12312,sdfsdfs,2023-04-13_19h18.40.037,bandit task,2022.2.5,143.83046401651688,
40,0,40,0,,,,,,,,,,,,,,,,,45.10782969999127,45.10782969999127,45.10782969999127,45.10782969999127,45.10782969999127,w,0.06051280000247061,45.179943800205365,45.179943800205365,,,,,,,,,,,,,,,,,,,,,,,,,,,,,,,,,,,,,,,,,,12312,sdfsdfs,2023-04-13_19h18.40.037,bandit task,2022.2.5,143.83046401651688,
41,0,41,0,,,,,,,,,,,,,,,,,45.586578299989924,45.586578299989924,45.586578299989924,45.586578299989924,45.586578299989924,p,0.07211550022475421,45.671088400064036,45.671088400064036,46.07325530005619,46.07325530005619,,,,,,,,,,,,,,,,,,,,,,,,,,,,,,,,,,,,,,,,12312,sdfsdfs,2023-04-13_19h18.40.037,bandit task,2022.2.5,143.83046401651688,
42,0,42,0,,,,,,,,,,,,,,,,,46.07325530005619,46.07325530005619,46.07325530005619,46.07325530005619,46.07325530005619,q,0.060085600009188056,46.14408800005913,46.14408800005913,,,,,,,,,,,,,,,,,,,,,,,,,,,,,,,,,,,,,,,,,,12312,sdfsdfs,2023-04-13_19h18.40.037,bandit task,2022.2.5,143.83046401651688,
43,0,43,0,,,,,,,,,,,,,,,,,46.552970400080085,46.552970400080085,46.552970400080085,46.552970400080085,46.552970400080085,o,0.006859200075268745,46.56943100015633,46.56943100015633,,,,,,,,,,,,,,,,,,,,,,,,,,,,,,,,,,,,,,,,,,12312,sdfsdfs,2023-04-13_19h18.40.037,bandit task,2022.2.5,143.83046401651688,
44,0,44,0,,,,,,,,,,,,,,,,,46.97540970006958,46.97540970006958,46.97540970006958,46.97540970006958,46.97540970006958,w,0.018956599989905953,47.007273900089785,47.007273900089785,,,,,,,,,,,,,,,,,,,,,,,,,,,,,,,,,,,,,,,,,,12312,sdfsdfs,2023-04-13_19h18.40.037,bandit task,2022.2.5,143.83046401651688,
45,0,45,0,,,,,,,,,,,,,,,,,47.413519100053236,47.413519100053236,47.413519100053236,47.413519100053236,47.413519100053236,p,0.0021126000210642815,47.44865750009194,47.44865750009194,47.850965100107715,47.850965100107715,,,,,,,,,,,,,,,,,,,,,,,,,,,,,,,,,,,,,,,,12312,sdfsdfs,2023-04-13_19h18.40.037,bandit task,2022.2.5,143.83046401651688,
46,0,46,0,,,,,,,,,,,,,,,,,47.850965100107715,47.850965100107715,47.850965100107715,47.850965100107715,47.850965100107715,o,0.3131897000130266,48.17714080004953,48.17714080004953,48.580328800017014,48.580328800017014,,,,,,,,,,,,,,,,,,,,,,,,,,,,,,,,,,,,,,,,12312,sdfsdfs,2023-04-13_19h18.40.037,bandit task,2022.2.5,143.83046401651688,
47,0,47,0,,,,,,,,,,,,,,,,,48.580328800017014,48.580328800017014,48.580328800017014,48.580328800017014,48.580328800017014,q,0.05515300016850233,48.6451711000409,48.6451711000409,,,,,,,,,,,,,,,,,,,,,,,,,,,,,,,,,,,,,,,,,,12312,sdfsdfs,2023-04-13_19h18.40.037,bandit task,2022.2.5,143.83046401651688,
48,0,48,0,,,,,,,,,,,,,,,,,49.05221420014277,49.05221420014277,49.05221420014277,49.05221420014277,49.05221420014277,w,0.41081449994817376,49.475745000177994,49.475745000177994,49.87882460001856,49.87882460001856,,,,,,,,,,,,,,,,,,,,,,,,,,,,,,,,,,,,,,,,12312,sdfsdfs,2023-04-13_19h18.40.037,bandit task,2022.2.5,143.83046401651688,
49,0,49,0,,,,,,,,,,,,,,,,,49.87882460001856,49.87882460001856,49.87882460001856,49.87882460001856,49.87882460001856,o,0.11738459998741746,50.00570730003528,50.00570730003528,,,,,,,,,,,,,,,,,,,,,,,,,,,,,,,,,,,,,,,,,,12312,sdfsdfs,2023-04-13_19h18.40.037,bandit task,2022.2.5,143.83046401651688,
50,0,50,0,,,,,,,,,,,,,,,,,50.4135249000974,50.4135249000974,50.4135249000974,50.4135249000974,50.4135249000974,q,0.09494889993220568,50.52100510010496,50.52100510010496,,,,,,,,,,,,,,,,,,,,,,,,,,,,,,,,,,,,,,,,,,12312,sdfsdfs,2023-04-13_19h18.40.037,bandit task,2022.2.5,143.83046401651688,
51,0,51,0,,,,,,,,,,,,,,,,,50.92754660011269,50.92754660011269,50.92754660011269,50.92754660011269,50.92754660011269,p,0.08357899985276163,51.02508130017668,51.02508130017668,51.426897700177506,51.426897700177506,,,,,,,,,,,,,,,,,,,,,,,,,,,,,,,,,,,,,,,,12312,sdfsdfs,2023-04-13_19h18.40.037,bandit task,2022.2.5,143.83046401651688,
52,0,52,0,,,,,,,,,,,,,,,,,51.426897700177506,51.426897700177506,51.426897700177506,51.426897700177506,51.426897700177506,w,0.04917030013166368,51.48321910016239,51.48321910016239,51.88620260008611,51.88620260008611,,,,,,,,,,,,,,,,,,,,,,,,,,,,,,,,,,,,,,,,12312,sdfsdfs,2023-04-13_19h18.40.037,bandit task,2022.2.5,143.83046401651688,
53,0,53,0,,,,,,,,,,,,,,,,,51.88620260008611,51.88620260008611,51.88620260008611,51.88620260008611,51.88620260008611,o,0.036968700122088194,51.93507210002281,51.93507210002281,52.336533800000325,52.336533800000325,,,,,,,,,,,,,,,,,,,,,,,,,,,,,,,,,,,,,,,,12312,sdfsdfs,2023-04-13_19h18.40.037,bandit task,2022.2.5,143.83046401651688,
54,0,54,0,,,,,,,,,,,,,,,,,52.336533800000325,52.336533800000325,52.336533800000325,52.336533800000325,52.336533800000325,q,0.029362200060859323,52.3796535001602,52.3796535001602,52.7821478000842,52.7821478000842,,,,,,,,,,,,,,,,,,,,,,,,,,,,,,,,,,,,,,,,12312,sdfsdfs,2023-04-13_19h18.40.037,bandit task,2022.2.5,143.83046401651688,
55,0,55,0,,,,,,,,,,,,,,,,,52.7821478000842,52.7821478000842,52.7821478000842,52.7821478000842,52.7821478000842,p,0.02878500008955598,52.82036380004138,52.82036380004138,,,,,,,,,,,,,,,,,,,,,,,,,,,,,,,,,,,,,,,,,,12312,sdfsdfs,2023-04-13_19h18.40.037,bandit task,2022.2.5,143.83046401651688,
56,0,56,0,,,,,,,,,,,,,,,,,53.22557480004616,53.22557480004616,53.22557480004616,53.22557480004616,53.22557480004616,w,0.09526160010136664,53.33485560002737,53.33485560002737,,,,,,,,,,,,,,,,,,,,,,,,,,,,,,,,,,,,,,,,,,12312,sdfsdfs,2023-04-13_19h18.40.037,bandit task,2022.2.5,143.83046401651688,
57,0,57,0,,,,,,,,,,,,,,,,,53.7397886000108,53.7397886000108,53.7397886000108,53.7397886000108,53.7397886000108,o,0.05817880015820265,53.81050440017134,53.81050440017134,,,,,,,,,,,,,,,,,,,,,,,,,,,,,,,,,,,,,,,,,,12312,sdfsdfs,2023-04-13_19h18.40.037,bandit task,2022.2.5,143.83046401651688,
58,0,58,0,,,,,,,,,,,,,,,,,54.21879930002615,54.21879930002615,54.21879930002615,54.21879930002615,54.21879930002615,q,0.006688599940389395,54.234920400194824,54.234920400194824,,,,,,,,,,,,,,,,,,,,,,,,,,,,,,,,,,,,,,,,,,12312,sdfsdfs,2023-04-13_19h18.40.037,bandit task,2022.2.5,143.83046401651688,
59,0,59,0,,,,,,,,,,,,,,,,,54.6429430001881,54.6429430001881,54.6429430001881,54.6429430001881,54.6429430001881,w,0.40929689980112016,55.06055950000882,55.06055950000882,,,,,,,,,,,,,,,,,,,,,,,,,,,,,,,,,,,,,,,,,,12312,sdfsdfs,2023-04-13_19h18.40.037,bandit task,2022.2.5,143.83046401651688,
60,0,60,0,,,,,,,,,,,,,,,,,55.468717799987644,55.468717799987644,55.468717799987644,55.468717799987644,55.468717799987644,o,0.07623680005781353,55.55375560000539,55.55375560000539,,,,,,,,,,,,,,,,,,,,,,,,,,,,,,,,,,,,,,,,,,12312,sdfsdfs,2023-04-13_19h18.40.037,bandit task,2022.2.5,143.83046401651688,
61,0,61,0,,,,,,,,,,,,,,,,,55.96239590016194,55.96239590016194,55.96239590016194,55.96239590016194,55.96239590016194,q,0.09246569988317788,56.06754200020805,56.06754200020805,,,,,,,,,,,,,,,,,,,,,,,,,,,,,,,,,,,,,,,,,,12312,sdfsdfs,2023-04-13_19h18.40.037,bandit task,2022.2.5,143.83046401651688,
62,0,62,0,,,,,,,,,,,,,,,,,56.47556560020894,56.47556560020894,56.47556560020894,56.47556560020894,56.47556560020894,p,0.009729200042784214,56.49467440019362,56.49467440019362,56.90284880017862,56.90284880017862,,,,,,,,,,,,,,,,,,,,,,,,,,,,,,,,,,,,,,,,12312,sdfsdfs,2023-04-13_19h18.40.037,bandit task,2022.2.5,143.83046401651688,
63,0,63,0,,,,,,,,,,,,,,,,,56.90284880017862,56.90284880017862,56.90284880017862,56.90284880017862,56.90284880017862,w,0.04508220008574426,56.96143600018695,56.96143600018695,,,,,,,,,,,,,,,,,,,,,,,,,,,,,,,,,,,,,,,,,,12312,sdfsdfs,2023-04-13_19h18.40.037,bandit task,2022.2.5,143.83046401651688,
64,0,64,0,,,,,,,,,,,,,,,,,57.36466419999488,57.36466419999488,57.36466419999488,57.36466419999488,57.36466419999488,o,0.03280279994942248,57.40758410003036,57.40758410003036,57.80909980018623,57.80909980018623,,,,,,,,,,,,,,,,,,,,,,,,,,,,,,,,,,,,,,,,12312,sdfsdfs,2023-04-13_19h18.40.037,bandit task,2022.2.5,143.83046401651688,
65,0,65,0,,,,,,,,,,,,,,,,,57.80909980018623,57.80909980018623,57.80909980018623,57.80909980018623,57.80909980018623,q,0.1284109998960048,57.9735300000757,57.9735300000757,,,,,,,,,,,,,,,,,,,,,,,,,,,,,,,,,,,,,,,,,,12312,sdfsdfs,2023-04-13_19h18.40.037,bandit task,2022.2.5,143.83046401651688,
66,0,66,0,,,,,,,,,,,,,,,,,58.37942620017566,58.37942620017566,58.37942620017566,58.37942620017566,58.37942620017566,w,0.42996879993006587,58.81893629999831,58.81893629999831,,,,,,,,,,,,,,,,,,,,,,,,,,,,,,,,,,,,,,,,,,12312,sdfsdfs,2023-04-13_19h18.40.037,bandit task,2022.2.5,143.83046401651688,
67,0,67,0,,,,,,,,,,,,,,,,,59.2255897000432,59.2255897000432,59.2255897000432,59.2255897000432,59.2255897000432,o,0.020546300103887916,59.25544430012815,59.25544430012815,,,,,,,,,,,,,,,,,,,,,,,,,,,,,,,,,,,,,,,,,,12312,sdfsdfs,2023-04-13_19h18.40.037,bandit task,2022.2.5,143.83046401651688,
68,0,68,0,,,,,,,,,,,,,,,,,59.663344900123775,59.663344900123775,59.663344900123775,59.663344900123775,59.663344900123775,q,0.01864459994249046,59.69400030001998,59.69400030001998,,,,,,,,,,,,,,,,,,,,,,,,,,,,,,,,,,,,,,,,,,12312,sdfsdfs,2023-04-13_19h18.40.037,bandit task,2022.2.5,143.83046401651688,
69,0,69,0,,,,,,,,,,,,,,,,,60.10087270010263,60.10087270010263,60.10087270010263,60.10087270010263,60.10087270010263,w,0.3442484999541193,60.456981100142,60.456981100142,,,,,,,,,,,,,,,,,,,,,,,,,,,,,,,,,,,,,,,,,,12312,sdfsdfs,2023-04-13_19h18.40.037,bandit task,2022.2.5,143.83046401651688,
70,0,70,0,,,,,,,,,,,,,,,,,60.86499990010634,60.86499990010634,60.86499990010634,60.86499990010634,60.86499990010634,o,0.04652399988844991,60.92452960019,60.92452960019,,,,,,,,,,,,,,,,,,,,,,,,,,,,,,,,,,,,,,,,,,12312,sdfsdfs,2023-04-13_19h18.40.037,bandit task,2022.2.5,143.83046401651688,
71,0,71,0,,,,,,,,,,,,,,,,,61.32980370009318,61.32980370009318,61.32980370009318,61.32980370009318,61.32980370009318,p,0.4164185000117868,61.754755600122735,61.754755600122735,62.156719900202006,62.156719900202006,,,,,,,,,,,,,,,,,,,,,,,,,,,,,,,,,,,,,,,,12312,sdfsdfs,2023-04-13_19h18.40.037,bandit task,2022.2.5,143.83046401651688,
72,0,72,0,,,,,,,,,,,,,,,,,62.156719900202006,62.156719900202006,62.156719900202006,62.156719900202006,62.156719900202006,q,0.10865739989094436,62.27494820021093,62.27494820021093,62.67692930018529,62.67692930018529,,,,,,,,,,,,,,,,,,,,,,,,,,,,,,,,,,,,,,,,12312,sdfsdfs,2023-04-13_19h18.40.037,bandit task,2022.2.5,143.83046401651688,
73,0,73,0,,,,,,,,,,,,,,,,,62.67692930018529,62.67692930018529,62.67692930018529,62.67692930018529,62.67692930018529,o,0.07463019993156195,62.7619633001741,62.7619633001741,,,,,,,,,,,,,,,,,,,,,,,,,,,,,,,,,,,,,,,,,,12312,sdfsdfs,2023-04-13_19h18.40.037,bandit task,2022.2.5,143.83046401651688,
74,0,74,0,,,,,,,,,,,,,,,,,63.17056060000323,63.17056060000323,63.17056060000323,63.17056060000323,63.17056060000323,w,0.0621032000053674,63.242935500107706,63.242935500107706,,,,,,,,,,,,,,,,,,,,,,,,,,,,,,,,,,,,,,,,,,12312,sdfsdfs,2023-04-13_19h18.40.037,bandit task,2022.2.5,143.83046401651688,
75,0,75,0,,,,,,,,,,,,,,,,,63.64905710006133,63.64905710006133,63.64905710006133,63.64905710006133,63.64905710006133,p,0.04443160002119839,63.706121100112796,63.706121100112796,64.10823600017466,64.10823600017466,,,,,,,,,,,,,,,,,,,,,,,,,,,,,,,,,,,,,,,,12312,sdfsdfs,2023-04-13_19h18.40.037,bandit task,2022.2.5,143.83046401651688,
76,0,76,0,,,,,,,,,,,,,,,,,64.10823600017466,64.10823600017466,64.10823600017466,64.10823600017466,64.10823600017466,o,0.38403229997493327,64.5054770000279,64.5054770000279,,,,,,,,,,,,,,,,,,,,,,,,,,,,,,,,,,,,,,,,,,12312,sdfsdfs,2023-04-13_19h18.40.037,bandit task,2022.2.5,143.83046401651688,
77,0,77,0,,,,,,,,,,,,,,,,,64.91328760003671,64.91328760003671,64.91328760003671,64.91328760003671,64.91328760003671,w,0.15215119998902082,65.07351760007441,65.07351760007441,65.47595410002396,65.47595410002396,,,,,,,,,,,,,,,,,,,,,,,,,,,,,,,,,,,,,,,,12312,sdfsdfs,2023-04-13_19h18.40.037,bandit task,2022.2.5,143.83046401651688,
78,0,78,0,,,,,,,,,,,,,,,,,65.47595410002396,65.47595410002396,65.47595410002396,65.47595410002396,65.47595410002396,p,0.03906469978392124,65.52506690006703,65.52506690006703,65.92710810014978,65.92710810014978,,,,,,,,,,,,,,,,,,,,,,,,,,,,,,,,,,,,,,,,12312,sdfsdfs,2023-04-13_19h18.40.037,bandit task,2022.2.5,143.83046401651688,
79,0,79,0,0,0,0,0,,,,,,,,,,,,,65.92710810014978,65.92710810014978,65.92710810014978,65.92710810014978,65.92710810014978,o,0.48104190011508763,66.42194740008563,66.42194740008563,,,66.83572940016165,66.83572940016165,space,11.594038299983367,,,,,,,,,,,,,,,,,,,,,,,,,,,,,,,,,,,,12312,sdfsdfs,2023-04-13_19h18.40.037,bandit task,2022.2.5,143.83046401651688,
79,0,79,0,,,,,,,,,,,,,,,,,,,,,,,,,,,,,,,,,,,,,,,,,,,,,,,,,,,,,,,,,,,,,,,,,,,12312,sdfsdfs,2023-04-13_19h18.40.037,bandit task,2022.2.5,143.83046401651688,
80,0,80,0,,,,,,,,,,,,,,,,,78.44149970007129,78.44149970007129,78.44149970007129,78.44149970007129,78.44149970007129,q,0.4849330000579357,78.93492490006611,78.93492490006611,79.33650120021775,79.33650120021775,,,,,,,,,,,,,,,,,,,,,,,,,,,,,,,,,,,,,,,,12312,sdfsdfs,2023-04-13_19h18.40.037,bandit task,2022.2.5,143.83046401651688,
81,0,81,0,,,,,,,,,,,,,,,,,79.33650120021775,79.33650120021775,79.33650120021775,79.33650120021775,79.33650120021775,p,0.1324935001321137,79.47806640015915,79.47806640015915,,,,,,,,,,,,,,,,,,,,,,,,,,,,,,,,,,,,,,,,,,12312,sdfsdfs,2023-04-13_19h18.40.037,bandit task,2022.2.5,143.83046401651688,
82,0,82,0,,,,,,,,,,,,,,,,,79.88566200016066,79.88566200016066,79.88566200016066,79.88566200016066,79.88566200016066,w,0.06001700018532574,79.95630960003473,79.95630960003473,80.35800310014747,80.35800310014747,,,,,,,,,,,,,,,,,,,,,,,,,,,,,,,,,,,,,,,,12312,sdfsdfs,2023-04-13_19h18.40.037,bandit task,2022.2.5,143.83046401651688,
83,0,83,0,,,,,,,,,,,,,,,,,80.35800310014747,80.35800310014747,80.35800310014747,80.35800310014747,80.35800310014747,p,0.020192000083625317,80.38756320020184,80.38756320020184,,,,,,,,,,,,,,,,,,,,,,,,,,,,,,,,,,,,,,,,,,12312,sdfsdfs,2023-04-13_19h18.40.037,bandit task,2022.2.5,143.83046401651688,
84,0,84,0,,,,,,,,,,,,,,,,,80.7956223001238,80.7956223001238,80.7956223001238,80.7956223001238,80.7956223001238,q,0.02000169991515577,80.82465930003673,80.82465930003673,81.22586180013604,81.22586180013604,,,,,,,,,,,,,,,,,,,,,,,,,,,,,,,,,,,,,,,,12312,sdfsdfs,2023-04-13_19h18.40.037,bandit task,2022.2.5,143.83046401651688,
85,0,85,0,,,,,,,,,,,,,,,,,81.22586180013604,81.22586180013604,81.22586180013604,81.22586180013604,81.22586180013604,w,0.4281168000306934,81.66482629999518,81.66482629999518,,,,,,,,,,,,,,,,,,,,,,,,,,,,,,,,,,,,,,,,,,12312,sdfsdfs,2023-04-13_19h18.40.037,bandit task,2022.2.5,143.83046401651688,
86,0,86,0,,,,,,,,,,,,,,,,,82.07296000001952,82.07296000001952,82.07296000001952,82.07296000001952,82.07296000001952,p,0.04463050002232194,82.12992560002021,82.12992560002021,,,,,,,,,,,,,,,,,,,,,,,,,,,,,,,,,,,,,,,,,,12312,sdfsdfs,2023-04-13_19h18.40.037,bandit task,2022.2.5,143.83046401651688,
87,0,87,0,,,,,,,,,,,,,,,,,82.53824820020236,82.53824820020236,82.53824820020236,82.53824820020236,82.53824820020236,q,0.025537499925121665,82.57414610008709,82.57414610008709,,,,,,,,,,,,,,,,,,,,,,,,,,,,,,,,,,,,,,,,,,12312,sdfsdfs,2023-04-13_19h18.40.037,bandit task,2022.2.5,143.83046401651688,
88,0,88,0,,,,,,,,,,,,,,,,,82.98280500015244,82.98280500015244,82.98280500015244,82.98280500015244,82.98280500015244,w,0.3934881000313908,83.38756619999185,83.38756619999185,,,,,,,,,,,,,,,,,,,,,,,,,,,,,,,,,,,,,,,,,,12312,sdfsdfs,2023-04-13_19h18.40.037,bandit task,2022.2.5,143.83046401651688,
89,0,89,0,,,,,,,,,,,,,,,,,83.79525070008822,83.79525070008822,83.79525070008822,83.79525070008822,83.79525070008822,p,0.0829100999981165,83.88764710002579,83.88764710002579,,,,,,,,,,,,,,,,,,,,,,,,,,,,,,,,,,,,,,,,,,12312,sdfsdfs,2023-04-13_19h18.40.037,bandit task,2022.2.5,143.83046401651688,
90,0,90,0,,,,,,,,,,,,,,,,,84.29508560011163,84.29508560011163,84.29508560011163,84.29508560011163,84.29508560011163,q,0.05040089995600283,84.35816980013624,84.35816980013624,84.76294860010967,84.76294860010967,,,,,,,,,,,,,,,,,,,,,,,,,,,,,,,,,,,,,,,,12312,sdfsdfs,2023-04-13_19h18.40.037,bandit task,2022.2.5,143.83046401651688,
91,0,91,0,,,,,,,,,,,,,,,,,84.76294860010967,84.76294860010967,84.76294860010967,84.76294860010967,84.76294860010967,w,0.48147780005820096,85.25486220000312,85.25486220000312,,,,,,,,,,,,,,,,,,,,,,,,,,,,,,,,,,,,,,,,,,12312,sdfsdfs,2023-04-13_19h18.40.037,bandit task,2022.2.5,143.83046401651688,
92,0,92,0,,,,,,,,,,,,,,,,,85.66285750013776,85.66285750013776,85.66285750013776,85.66285750013776,85.66285750013776,p,0.08139479998499155,85.75883500021882,85.75883500021882,,,,,,,,,,,,,,,,,,,,,,,,,,,,,,,,,,,,,,,,,,12312,sdfsdfs,2023-04-13_19h18.40.037,bandit task,2022.2.5,143.83046401651688,
93,0,93,0,,,,,,,,,,,,,,,,,86.16346960002556,86.16346960002556,86.16346960002556,86.16346960002556,86.16346960002556,q,0.04081449983641505,86.21335930004716,86.21335930004716,,,,,,,,,,,,,,,,,,,,,,,,,,,,,,,,,,,,,,,,,,12312,sdfsdfs,2023-04-13_19h18.40.037,bandit task,2022.2.5,143.83046401651688,
94,0,94,0,,,,,,,,,,,,,,,,,86.62180640012957,86.62180640012957,86.62180640012957,86.62180640012957,86.62180640012957,w,0.41001900006085634,87.04052030015737,87.04052030015737,,,,,,,,,,,,,,,,,,,,,,,,,,,,,,,,,,,,,,,,,,12312,sdfsdfs,2023-04-13_19h18.40.037,bandit task,2022.2.5,143.83046401651688,
95,0,95,0,,,,,,,,,,,,,,,,,87.44853080017492,87.44853080017492,87.44853080017492,87.44853080017492,87.44853080017492,p,0.3879088999237865,87.84570390009321,87.84570390009321,,,,,,,,,,,,,,,,,,,,,,,,,,,,,,,,,,,,,,,,,,12312,sdfsdfs,2023-04-13_19h18.40.037,bandit task,2022.2.5,143.83046401651688,
96,0,96,0,,,,,,,,,,,,,,,,,88.25362249999307,88.25362249999307,88.25362249999307,88.25362249999307,88.25362249999307,q,0.16465070005506277,88.43070090003312,88.43070090003312,,,,,,,,,,,,,,,,,,,,,,,,,,,,,,,,,,,,,,,,,,12312,sdfsdfs,2023-04-13_19h18.40.037,bandit task,2022.2.5,143.83046401651688,
97,0,97,0,,,,,,,,,,,,,,,,,88.83722230000421,88.83722230000421,88.83722230000421,88.83722230000421,88.83722230000421,p,0.01819580001756549,88.86615900020115,88.86615900020115,,,,,,,,,,,,,,,,,,,,,,,,,,,,,,,,,,,,,,,,,,12312,sdfsdfs,2023-04-13_19h18.40.037,bandit task,2022.2.5,143.83046401651688,
98,0,98,0,,,,,,,,,,,,,,,,,89.27469220012426,89.27469220012426,89.27469220012426,89.27469220012426,89.27469220012426,p,0.3897957999724895,89.67982990015298,89.67982990015298,,,,,,,,,,,,,,,,,,,,,,,,,,,,,,,,,,,,,,,,,,12312,sdfsdfs,2023-04-13_19h18.40.037,bandit task,2022.2.5,143.83046401651688,
99,0,99,0,,,,,,,,,,,,,,,,,90.08715450018644,90.08715450018644,90.08715450018644,90.08715450018644,90.08715450018644,q,0.11565960012376308,90.21235600020736,90.21235600020736,90.61446220008656,90.61446220008656,,,,,,,,,,,,,,,,,,,,,,,,,,,,,,,,,,,,,,,,12312,sdfsdfs,2023-04-13_19h18.40.037,bandit task,2022.2.5,143.83046401651688,
100,0,100,0,,,,,,,,,,,,,,,,,90.61446220008656,90.61446220008656,90.61446220008656,90.61446220008656,90.61446220008656,o,0.020287200110033154,90.64536070008762,90.64536070008762,,,,,,,,,,,,,,,,,,,,,,,,,,,,,,,,,,,,,,,,,,12312,sdfsdfs,2023-04-13_19h18.40.037,bandit task,2022.2.5,143.83046401651688,
101,0,101,0,,,,,,,,,,,,,,,,,91.05292779998854,91.05292779998854,91.05292779998854,91.05292779998854,91.05292779998854,w,0.027777499984949827,91.09229040006176,91.09229040006176,,,,,,,,,,,,,,,,,,,,,,,,,,,,,,,,,,,,,,,,,,12312,sdfsdfs,2023-04-13_19h18.40.037,bandit task,2022.2.5,143.83046401651688,
102,0,102,0,,,,,,,,,,,,,,,,,91.49614380020648,91.49614380020648,91.49614380020648,91.49614380020648,91.49614380020648,p,0.3735561999492347,91.88034620019607,91.88034620019607,,,,,,,,,,,,,,,,,,,,,,,,,,,,,,,,,,,,,,,,,,12312,sdfsdfs,2023-04-13_19h18.40.037,bandit task,2022.2.5,143.83046401651688,
103,0,103,0,,,,,,,,,,,,,,,,,92.28819250012748,92.28819250012748,92.28819250012748,92.28819250012748,92.28819250012748,q,0.06951020006090403,92.36569400015287,92.36569400015287,92.76802360010333,92.76802360010333,,,,,,,,,,,,,,,,,,,,,,,,,,,,,,,,,,,,,,,,12312,sdfsdfs,2023-04-13_19h18.40.037,bandit task,2022.2.5,143.83046401651688,
104,0,104,0,,,,,,,,,,,,,,,,,92.76802360010333,92.76802360010333,92.76802360010333,92.76802360010333,92.76802360010333,o,0.018116199877113104,92.79635560000315,92.79635560000315,93.19969990011305,93.19969990011305,,,,,,,,,,,,,,,,,,,,,,,,,,,,,,,,,,,,,,,,12312,sdfsdfs,2023-04-13_19h18.40.037,bandit task,2022.2.5,143.83046401651688,
105,0,105,0,,,,,,,,,,,,,,,,,93.19969990011305,93.19969990011305,93.19969990011305,93.19969990011305,93.19969990011305,w,0.04973249998874962,93.2631607002113,93.2631607002113,,,,,,,,,,,,,,,,,,,,,,,,,,,,,,,,,,,,,,,,,,12312,sdfsdfs,2023-04-13_19h18.40.037,bandit task,2022.2.5,143.83046401651688,
106,0,106,0,,,,,,,,,,,,,,,,,93.66326550021768,93.66326550021768,93.66326550021768,93.66326550021768,93.66326550021768,q,0.407455800101161,94.07978850021027,94.07978850021027,94.48297110013664,94.48297110013664,,,,,,,,,,,,,,,,,,,,,,,,,,,,,,,,,,,,,,,,12312,sdfsdfs,2023-04-13_19h18.40.037,bandit task,2022.2.5,143.83046401651688,
107,0,107,0,,,,,,,,,,,,,,,,,94.48297110013664,94.48297110013664,94.48297110013664,94.48297110013664,94.48297110013664,o,0.0008757999166846275,94.49220080021769,94.49220080021769,,,,,,,,,,,,,,,,,,,,,,,,,,,,,,,,,,,,,,,,,,12312,sdfsdfs,2023-04-13_19h18.40.037,bandit task,2022.2.5,143.83046401651688,
108,0,108,0,,,,,,,,,,,,,,,,,94.89951730007306,94.89951730007306,94.89951730007306,94.89951730007306,94.89951730007306,p,0.4294067998416722,95.33843030012213,95.33843030012213,,,,,,,,,,,,,,,,,,,,,,,,,,,,,,,,,,,,,,,,,,12312,sdfsdfs,2023-04-13_19h18.40.037,bandit task,2022.2.5,143.83046401651688,
109,0,109,0,,,,,,,,,,,,,,,,,95.74637050018646,95.74637050018646,95.74637050018646,95.74637050018646,95.74637050018646,w,0.0780619999859482,95.83753280015662,95.83753280015662,96.2400898002088,96.2400898002088,,,,,,,,,,,,,,,,,,,,,,,,,,,,,,,,,,,,,,,,12312,sdfsdfs,2023-04-13_19h18.40.037,bandit task,2022.2.5,143.83046401651688,
110,0,110,0,,,,,,,,,,,,,,,,,96.2400898002088,96.2400898002088,96.2400898002088,96.2400898002088,96.2400898002088,p,0.0016525001265108585,96.25422600004822,96.25422600004822,96.65607430017553,96.65607430017553,,,,,,,,,,,,,,,,,,,,,,,,,,,,,,,,,,,,,,,,12312,sdfsdfs,2023-04-13_19h18.40.037,bandit task,2022.2.5,143.83046401651688,
111,0,111,0,,,,,,,,,,,,,,,,,96.65607430017553,96.65607430017553,96.65607430017553,96.65607430017553,96.65607430017553,q,0.03970710001885891,96.7033514000941,96.7033514000941,97.10797930019908,97.10797930019908,,,,,,,,,,,,,,,,,,,,,,,,,,,,,,,,,,,,,,,,12312,sdfsdfs,2023-04-13_19h18.40.037,bandit task,2022.2.5,143.83046401651688,
112,0,112,0,,,,,,,,,,,,,,,,,97.10797930019908,97.10797930019908,97.10797930019908,97.10797930019908,97.10797930019908,o,0.016664399998262525,97.13626250019297,97.13626250019297,97.53803350008093,97.53803350008093,,,,,,,,,,,,,,,,,,,,,,,,,,,,,,,,,,,,,,,,12312,sdfsdfs,2023-04-13_19h18.40.037,bandit task,2022.2.5,143.83046401651688,
113,0,113,0,,,,,,,,,,,,,,,,,97.53803350008093,97.53803350008093,97.53803350008093,97.53803350008093,97.53803350008093,p,0.3952458000276238,97.94317800016142,97.94317800016142,,,,,,,,,,,,,,,,,,,,,,,,,,,,,,,,,,,,,,,,,,12312,sdfsdfs,2023-04-13_19h18.40.037,bandit task,2022.2.5,143.83046401651688,
114,0,114,0,,,,,,,,,,,,,,,,,98.35115500004031,98.35115500004031,98.35115500004031,98.35115500004031,98.35115500004031,q,0.10178179992362857,98.46364470012486,98.46364470012486,,,,,,,,,,,,,,,,,,,,,,,,,,,,,,,,,,,,,,,,,,12312,sdfsdfs,2023-04-13_19h18.40.037,bandit task,2022.2.5,143.83046401651688,
115,0,115,0,,,,,,,,,,,,,,,,,98.87280040001497,98.87280040001497,98.87280040001497,98.87280040001497,98.87280040001497,q,0.37481920002028346,99.26056409999728,99.26056409999728,99.66358940000646,99.66358940000646,,,,,,,,,,,,,,,,,,,,,,,,,,,,,,,,,,,,,,,,12312,sdfsdfs,2023-04-13_19h18.40.037,bandit task,2022.2.5,143.83046401651688,
116,0,116,0,,,,,,,,,,,,,,,,,99.66358940000646,99.66358940000646,99.66358940000646,99.66358940000646,99.66358940000646,p,0.2004976999014616,99.872944700066,99.872944700066,,,,,,,,,,,,,,,,,,,,,,,,,,,,,,,,,,,,,,,,,,12312,sdfsdfs,2023-04-13_19h18.40.037,bandit task,2022.2.5,143.83046401651688,
117,0,117,0,,,,,,,,,,,,,,,,,100.28118410008028,100.28118410008028,100.28118410008028,100.28118410008028,100.28118410008028,q,0.13080989988520741,100.4214497001376,100.4214497001376,,,,,,,,,,,,,,,,,,,,,,,,,,,,,,,,,,,,,,,,,,12312,sdfsdfs,2023-04-13_19h18.40.037,bandit task,2022.2.5,143.83046401651688,
118,0,118,0,,,,,,,,,,,,,,,,,100.83010580018163,100.83010580018163,100.83010580018163,100.83010580018163,100.83010580018163,p,0.11239350005052984,100.95496840006672,100.95496840006672,101.35738659999333,101.35738659999333,,,,,,,,,,,,,,,,,,,,,,,,,,,,,,,,,,,,,,,,12312,sdfsdfs,2023-04-13_19h18.40.037,bandit task,2022.2.5,143.83046401651688,
119,0,119,0,,,,,,,,,,,,,,,,,101.35738659999333,101.35738659999333,101.35738659999333,101.35738659999333,101.35738659999333,w,0.05318340007215738,101.42127849999815,101.42127849999815,,,,,,,,,,,,,,,,,,,,,,,,,,,,,,,,,,,,,,,,,,12312,sdfsdfs,2023-04-13_19h18.40.037,bandit task,2022.2.5,143.83046401651688,
120,0,120,0,,,,,,,,,,,,,,,,,101.83014250011183,101.83014250011183,101.83014250011183,101.83014250011183,101.83014250011183,o,0.07404659991152585,101.91429159999825,101.91429159999825,102.31606930005364,102.31606930005364,,,,,,,,,,,,,,,,,,,,,,,,,,,,,,,,,,,,,,,,12312,sdfsdfs,2023-04-13_19h18.40.037,bandit task,2022.2.5,143.83046401651688,
121,0,121,0,,,,,,,,,,,,,,,,,102.31606930005364,102.31606930005364,102.31606930005364,102.31606930005364,102.31606930005364,q,0.03760200017131865,102.36574390018359,102.36574390018359,102.76797330006957,102.76797330006957,,,,,,,,,,,,,,,,,,,,,,,,,,,,,,,,,,,,,,,,12312,sdfsdfs,2023-04-13_19h18.40.037,bandit task,2022.2.5,143.83046401651688,
122,0,122,0,,,,,,,,,,,,,,,,,102.76797330006957,102.76797330006957,102.76797330006957,102.76797330006957,102.76797330006957,p,0.05572810000739992,102.83374750008807,102.83374750008807,,,,,,,,,,,,,,,,,,,,,,,,,,,,,,,,,,,,,,,,,,12312,sdfsdfs,2023-04-13_19h18.40.037,bandit task,2022.2.5,143.83046401651688,
123,0,123,0,,,,,,,,,,,,,,,,,103.23986970004626,103.23986970004626,103.23986970004626,103.23986970004626,103.23986970004626,w,0.03145279991440475,103.28274860000238,103.28274860000238,,,,,,,,,,,,,,,,,,,,,,,,,,,,,,,,,,,,,,,,,,12312,sdfsdfs,2023-04-13_19h18.40.037,bandit task,2022.2.5,143.83046401651688,
124,0,124,0,,,,,,,,,,,,,,,,,103.69153720000759,103.69153720000759,103.69153720000759,103.69153720000759,103.69153720000759,o,0.05524919996969402,103.75495010009035,103.75495010009035,,,,,,,,,,,,,,,,,,,,,,,,,,,,,,,,,,,,,,,,,,12312,sdfsdfs,2023-04-13_19h18.40.037,bandit task,2022.2.5,143.83046401651688,
125,0,125,0,,,,,,,,,,,,,,,,,104.16476710001007,104.16476710001007,104.16476710001007,104.16476710001007,104.16476710001007,q,0.06394229992292821,104.24092190014198,104.24092190014198,,,,,,,,,,,,,,,,,,,,,,,,,,,,,,,,,,,,,,,,,,12312,sdfsdfs,2023-04-13_19h18.40.037,bandit task,2022.2.5,143.83046401651688,
126,0,126,0,,,,,,,,,,,,,,,,,104.64952300000004,104.64952300000004,104.64952300000004,104.64952300000004,104.64952300000004,p,0.08134259982034564,104.74164780019782,104.74164780019782,,,,,,,,,,,,,,,,,,,,,,,,,,,,,,,,,,,,,,,,,,12312,sdfsdfs,2023-04-13_19h18.40.037,bandit task,2022.2.5,143.83046401651688,
127,0,127,0,,,,,,,,,,,,,,,,,105.15006590005942,105.15006590005942,105.15006590005942,105.15006590005942,105.15006590005942,p,0.49331510020419955,105.65695440000854,105.65695440000854,106.05867370008491,106.05867370008491,,,,,,,,,,,,,,,,,,,,,,,,,,,,,,,,,,,,,,,,12312,sdfsdfs,2023-04-13_19h18.40.037,bandit task,2022.2.5,143.83046401651688,
128,0,128,0,,,,,,,,,,,,,,,,,106.05867370008491,106.05867370008491,106.05867370008491,106.05867370008491,106.05867370008491,q,0.15173589996993542,106.22055239998735,106.22055239998735,,,,,,,,,,,,,,,,,,,,,,,,,,,,,,,,,,,,,,,,,,12312,sdfsdfs,2023-04-13_19h18.40.037,bandit task,2022.2.5,143.83046401651688,
129,0,129,0,,,,,,,,,,,,,,,,,106.62856480013579,106.62856480013579,106.62856480013579,106.62856480013579,106.62856480013579,p,0.046275800094008446,106.68502219999209,106.68502219999209,107.08627640013583,107.08627640013583,,,,,,,,,,,,,,,,,,,,,,,,,,,,,,,,,,,,,,,,12312,sdfsdfs,2023-04-13_19h18.40.037,bandit task,2022.2.5,143.83046401651688,
130,0,130,0,,,,,,,,,,,,,,,,,107.08627640013583,107.08627640013583,107.08627640013583,107.08627640013583,107.08627640013583,w,0.03530600015074015,107.13063750020228,107.13063750020228,,,,,,,,,,,,,,,,,,,,,,,,,,,,,,,,,,,,,,,,,,12312,sdfsdfs,2023-04-13_19h18.40.037,bandit task,2022.2.5,143.83046401651688,
131,0,131,0,,,,,,,,,,,,,,,,,107.53836310002953,107.53836310002953,107.53836310002953,107.53836310002953,107.53836310002953,o,0.049366499995812774,107.60139170009643,107.60139170009643,108.00318500003777,108.00318500003777,,,,,,,,,,,,,,,,,,,,,,,,,,,,,,,,,,,,,,,,12312,sdfsdfs,2023-04-13_19h18.40.037,bandit task,2022.2.5,143.83046401651688,
132,0,132,0,,,,,,,,,,,,,,,,,108.00318500003777,108.00318500003777,108.00318500003777,108.00318500003777,108.00318500003777,q,0.08295230008661747,108.09449300006963,108.09449300006963,108.49657020019367,108.49657020019367,,,,,,,,,,,,,,,,,,,,,,,,,,,,,,,,,,,,,,,,12312,sdfsdfs,2023-04-13_19h18.40.037,bandit task,2022.2.5,143.83046401651688,
133,0,133,0,,,,,,,,,,,,,,,,,108.49657020019367,108.49657020019367,108.49657020019367,108.49657020019367,108.49657020019367,p,0.047987200086936355,108.5549240000546,108.5549240000546,,,,,,,,,,,,,,,,,,,,,,,,,,,,,,,,,,,,,,,,,,12312,sdfsdfs,2023-04-13_19h18.40.037,bandit task,2022.2.5,143.83046401651688,
134,0,134,0,,,,,,,,,,,,,,,,,108.9625533001963,108.9625533001963,108.9625533001963,108.9625533001963,108.9625533001963,w,0.3129143000114709,109.28848900017329,109.28848900017329,109.69135280000046,109.69135280000046,,,,,,,,,,,,,,,,,,,,,,,,,,,,,,,,,,,,,,,,12312,sdfsdfs,2023-04-13_19h18.40.037,bandit task,2022.2.5,143.83046401651688,
135,0,135,0,,,,,,,,,,,,,,,,,109.69135280000046,109.69135280000046,109.69135280000046,109.69135280000046,109.69135280000046,p,0.1527483998797834,109.85186689998955,109.85186689998955,110.25314500019886,110.25314500019886,,,,,,,,,,,,,,,,,,,,,,,,,,,,,,,,,,,,,,,,12312,sdfsdfs,2023-04-13_19h18.40.037,bandit task,2022.2.5,143.83046401651688,
136,0,136,0,,,,,,,,,,,,,,,,,110.25314500019886,110.25314500019886,110.25314500019886,110.25314500019886,110.25314500019886,q,0.12332459981553257,110.3871739001479,110.3871739001479,,,,,,,,,,,,,,,,,,,,,,,,,,,,,,,,,,,,,,,,,,12312,sdfsdfs,2023-04-13_19h18.40.037,bandit task,2022.2.5,143.83046401651688,
137,0,137,0,,,,,,,,,,,,,,,,,110.7953853001818,110.7953853001818,110.7953853001818,110.7953853001818,110.7953853001818,p,0.1372319001238793,110.94520499999635,110.94520499999635,,,,,,,,,,,,,,,,,,,,,,,,,,,,,,,,,,,,,,,,,,12312,sdfsdfs,2023-04-13_19h18.40.037,bandit task,2022.2.5,143.83046401651688,
138,0,138,0,,,,,,,,,,,,,,,,,111.35126960021444,111.35126960021444,111.35126960021444,111.35126960021444,111.35126960021444,w,0.056528399931266904,111.42111690016463,111.42111690016463,111.82359300018288,111.82359300018288,,,,,,,,,,,,,,,,,,,,,,,,,,,,,,,,,,,,,,,,12312,sdfsdfs,2023-04-13_19h18.40.037,bandit task,2022.2.5,143.83046401651688,
139,0,139,0,,,,,,,,,,,,,,,,,111.82359300018288,111.82359300018288,111.82359300018288,111.82359300018288,111.82359300018288,p,0.0821305001154542,111.91511860000901,111.91511860000901,,,,,,,,,,,,,,,,,,,,,,,,,,,,,,,,,,,,,,,,,,12312,sdfsdfs,2023-04-13_19h18.40.037,bandit task,2022.2.5,143.83046401651688,
140,0,140,0,,,,,,,,,,,,,,,,,112.32279160013422,112.32279160013422,112.32279160013422,112.32279160013422,112.32279160013422,q,0.0277774001006037,112.35891590011306,112.35891590011306,,,,,,,,,,,,,,,,,,,,,,,,,,,,,,,,,,,,,,,,,,12312,sdfsdfs,2023-04-13_19h18.40.037,bandit task,2022.2.5,143.83046401651688,
141,0,141,0,,,,,,,,,,,,,,,,,112.76744630001485,112.76744630001485,112.76744630001485,112.76744630001485,112.76744630001485,p,0.016296999994665384,112.79778250004165,112.79778250004165,,,,,,,,,,,,,,,,,,,,,,,,,,,,,,,,,,,,,,,,,,12312,sdfsdfs,2023-04-13_19h18.40.037,bandit task,2022.2.5,143.83046401651688,
142,0,142,0,,,,,,,,,,,,,,,,,113.20500350021757,113.20500350021757,113.20500350021757,113.20500350021757,113.20500350021757,q,0.03296900005079806,113.24734710017219,113.24734710017219,113.64957580016926,113.64957580016926,,,,,,,,,,,,,,,,,,,,,,,,,,,,,,,,,,,,,,,,12312,sdfsdfs,2023-04-13_19h18.40.037,bandit task,2022.2.5,143.83046401651688,
143,0,143,0,,,,,,,,,,,,,,,,,113.64957580016926,113.64957580016926,113.64957580016926,113.64957580016926,113.64957580016926,p,0.0006921000313013792,113.65783250005916,113.65783250005916,114.05883760005236,114.05883760005236,,,,,,,,,,,,,,,,,,,,,,,,,,,,,,,,,,,,,,,,12312,sdfsdfs,2023-04-13_19h18.40.037,bandit task,2022.2.5,143.83046401651688,
144,0,144,0,,,,,,,,,,,,,,,,,114.05883760005236,114.05883760005236,114.05883760005236,114.05883760005236,114.05883760005236,q,0.014751299982890487,114.08317790017463,114.08317790017463,,,,,,,,,,,,,,,,,,,,,,,,,,,,,,,,,,,,,,,,,,12312,sdfsdfs,2023-04-13_19h18.40.037,bandit task,2022.2.5,143.83046401651688,
145,0,145,0,,,,,,,,,,,,,,,,,114.48988120001741,114.48988120001741,114.48988120001741,114.48988120001741,114.48988120001741,p,0.033704299945384264,114.53316850005649,114.53316850005649,,,,,,,,,,,,,,,,,,,,,,,,,,,,,,,,,,,,,,,,,,12312,sdfsdfs,2023-04-13_19h18.40.037,bandit task,2022.2.5,143.83046401651688,
146,0,146,0,,,,,,,,,,,,,,,,,114.94076860020868,114.94076860020868,114.94076860020868,114.94076860020868,114.94076860020868,q,0.04701430001296103,114.997082100017,114.997082100017,115.39925050013699,115.39925050013699,,,,,,,,,,,,,,,,,,,,,,,,,,,,,,,,,,,,,,,,12312,sdfsdfs,2023-04-13_19h18.40.037,bandit task,2022.2.5,143.83046401651688,
147,0,147,0,,,,,,,,,,,,,,,,,115.39925050013699,115.39925050013699,115.39925050013699,115.39925050013699,115.39925050013699,p,0.06884029996581376,115.47897720010951,115.47897720010951,,,,,,,,,,,,,,,,,,,,,,,,,,,,,,,,,,,,,,,,,,12312,sdfsdfs,2023-04-13_19h18.40.037,bandit task,2022.2.5,143.83046401651688,
148,0,148,0,,,,,,,,,,,,,,,,,115.88562180008739,115.88562180008739,115.88562180008739,115.88562180008739,115.88562180008739,q,0.015148899983614683,115.91049180016853,115.91049180016853,,,,,,,,,,,,,,,,,,,,,,,,,,,,,,,,,,,,,,,,,,12312,sdfsdfs,2023-04-13_19h18.40.037,bandit task,2022.2.5,143.83046401651688,
149,0,149,0,,,,,,,,,,,,,,,,,116.31553650018759,116.31553650018759,116.31553650018759,116.31553650018759,116.31553650018759,p,0.03401139983907342,116.35997340013273,116.35997340013273,,,,,,,,,,,,,,,,,,,,,,,,,,,,,,,,,,,,,,,,,,12312,sdfsdfs,2023-04-13_19h18.40.037,bandit task,2022.2.5,143.83046401651688,
150,0,150,0,,,,,,,,,,,,,,,,,116.76741480012424,116.76741480012424,116.76741480012424,116.76741480012424,116.76741480012424,q,0.04425729997456074,116.82358340010978,116.82358340010978,117.22524550021626,117.22524550021626,,,,,,,,,,,,,,,,,,,,,,,,,,,,,,,,,,,,,,,,12312,sdfsdfs,2023-04-13_19h18.40.037,bandit task,2022.2.5,143.83046401651688,
151,0,151,0,,,,,,,,,,,,,,,,,117.22524550021626,117.22524550021626,117.22524550021626,117.22524550021626,117.22524550021626,q,0.373105299891904,117.60963930003345,117.60963930003345,,,,,,,,,,,,,,,,,,,,,,,,,,,,,,,,,,,,,,,,,,12312,sdfsdfs,2023-04-13_19h18.40.037,bandit task,2022.2.5,143.83046401651688,
152,0,152,0,,,,,,,,,,,,,,,,,118.0174589001108,118.0174589001108,118.0174589001108,118.0174589001108,118.0174589001108,p,0.0923146998975426,118.12133340002038,118.12133340002038,118.52439930010587,118.52439930010587,,,,,,,,,,,,,,,,,,,,,,,,,,,,,,,,,,,,,,,,12312,sdfsdfs,2023-04-13_19h18.40.037,bandit task,2022.2.5,143.83046401651688,
153,0,153,0,,,,,,,,,,,,,,,,,118.52439930010587,118.52439930010587,118.52439930010587,118.52439930010587,118.52439930010587,q,0.018642399925738573,118.5529291999992,118.5529291999992,118.95494830003008,118.95494830003008,,,,,,,,,,,,,,,,,,,,,,,,,,,,,,,,,,,,,,,,12312,sdfsdfs,2023-04-13_19h18.40.037,bandit task,2022.2.5,143.83046401651688,
154,0,154,0,,,,,,,,,,,,,,,,,118.95494830003008,118.95494830003008,118.95494830003008,118.95494830003008,118.95494830003008,p,0.0015318000223487616,118.96916100010276,118.96916100010276,119.37191790016368,119.37191790016368,,,,,,,,,,,,,,,,,,,,,,,,,,,,,,,,,,,,,,,,12312,sdfsdfs,2023-04-13_19h18.40.037,bandit task,2022.2.5,143.83046401651688,
155,0,155,0,,,,,,,,,,,,,,,,,119.37191790016368,119.37191790016368,119.37191790016368,119.37191790016368,119.37191790016368,p,0.43916549999266863,119.82475900021382,119.82475900021382,,,,,,,,,,,,,,,,,,,,,,,,,,,,,,,,,,,,,,,,,,12312,sdfsdfs,2023-04-13_19h18.40.037,bandit task,2022.2.5,143.83046401651688,
156,0,156,0,,,,,,,,,,,,,,,,,120.23348020017147,120.23348020017147,120.23348020017147,120.23348020017147,120.23348020017147,q,0.14006159990094602,120.38616230012849,120.38616230012849,120.78795530018397,120.78795530018397,,,,,,,,,,,,,,,,,,,,,,,,,,,,,,,,,,,,,,,,12312,sdfsdfs,2023-04-13_19h18.40.037,bandit task,2022.2.5,143.83046401651688,
157,0,157,0,,,,,,,,,,,,,,,,,120.78795530018397,120.78795530018397,120.78795530018397,120.78795530018397,120.78795530018397,p,0.07607729989103973,120.87303980020806,120.87303980020806,,,,,,,,,,,,,,,,,,,,,,,,,,,,,,,,,,,,,,,,,,12312,sdfsdfs,2023-04-13_19h18.40.037,bandit task,2022.2.5,143.83046401651688,
158,0,158,0,,,,,,,,,,,,,,,,,121.28172190021724,121.28172190021724,121.28172190021724,121.28172190021724,121.28172190021724,q,0.06771350000053644,121.3585003002081,121.3585003002081,121.76042100018822,121.76042100018822,,,,,,,,,,,,,,,,,,,,,,,,,,,,,,,,,,,,,,,,12312,sdfsdfs,2023-04-13_19h18.40.037,bandit task,2022.2.5,143.83046401651688,
159,0,159,0,0,0,0,0,,,,,,,,,,,,,121.76042100018822,121.76042100018822,121.76042100018822,121.76042100018822,121.76042100018822,p,0.037378499982878566,121.80962060019374,121.80962060019374,122.21769330021925,122.21769330021925,122.21769330021925,122.21769330021925,space,3.4451453001238406,,,,,,,,,,,,,,,,,,,,,,,,,,,,,,,,,,,,12312,sdfsdfs,2023-04-13_19h18.40.037,bandit task,2022.2.5,143.83046401651688,
159,0,159,0,,,,,,,,,,,,,,,,,,,,,,,,,,,,,,,,,,,,,,,,,,,,,,,,,,,,,,,,,,,,,,,,,,,12312,sdfsdfs,2023-04-13_19h18.40.037,bandit task,2022.2.5,143.83046401651688,
160,0,160,0,,,,,,,,,,,,,,,,,125.67661740002222,125.67661740002222,125.67661740002222,125.67661740002222,125.67661740002222,q,0.3936580999288708,126.08161170012318,126.08161170012318,,,,,,,,,,,,,,,,,,,,,,,,,,,,,,,,,,,,,,,,,,12312,sdfsdfs,2023-04-13_19h18.40.037,bandit task,2022.2.5,143.83046401651688,
161,0,161,0,,,,,,,,,,,,,,,,,126.48971530003473,126.48971530003473,126.48971530003473,126.48971530003473,126.48971530003473,p,0.10019380017183721,126.60292770015076,126.60292770015076,,,,,,,,,,,,,,,,,,,,,,,,,,,,,,,,,,,,,,,,,,12312,sdfsdfs,2023-04-13_19h18.40.037,bandit task,2022.2.5,143.83046401651688,
162,0,162,0,,,,,,,,,,,,,,,,,127.01071990001947,127.01071990001947,127.01071990001947,127.01071990001947,127.01071990001947,q,0.04184069996699691,127.06335530010983,127.06335530010983,,,,,,,,,,,,,,,,,,,,,,,,,,,,,,,,,,,,,,,,,,12312,sdfsdfs,2023-04-13_19h18.40.037,bandit task,2022.2.5,143.83046401651688,
163,0,163,0,,,,,,,,,,,,,,,,,127.46853260020725,127.46853260020725,127.46853260020725,127.46853260020725,127.46853260020725,p,0.06525719980709255,127.54649269999936,127.54649269999936,,,,,,,,,,,,,,,,,,,,,,,,,,,,,,,,,,,,,,,,,,12312,sdfsdfs,2023-04-13_19h18.40.037,bandit task,2022.2.5,143.83046401651688,
164,0,164,0,,,,,,,,,,,,,,,,,127.9557017001789,127.9557017001789,127.9557017001789,127.9557017001789,127.9557017001789,o,0.45297349989414215,128.42084110016003,128.42084110016003,128.8226432001684,128.8226432001684,,,,,,,,,,,,,,,,,,,,,,,,,,,,,,,,,,,,,,,,12312,sdfsdfs,2023-04-13_19h18.40.037,bandit task,2022.2.5,143.83046401651688,
165,0,165,0,,,,,,,,,,,,,,,,,128.8226432001684,128.8226432001684,128.8226432001684,128.8226432001684,128.8226432001684,q,0.028895100113004446,128.85946990014054,128.85946990014054,,,,,,,,,,,,,,,,,,,,,,,,,,,,,,,,,,,,,,,,,,12312,sdfsdfs,2023-04-13_19h18.40.037,bandit task,2022.2.5,143.83046401651688,
166,0,166,0,,,,,,,,,,,,,,,,,129.26762540009804,129.26762540009804,129.26762540009804,129.26762540009804,129.26762540009804,p,0.002448099898174405,129.28232590015978,129.28232590015978,129.6844173001591,129.6844173001591,,,,,,,,,,,,,,,,,,,,,,,,,,,,,,,,,,,,,,,,12312,sdfsdfs,2023-04-13_19h18.40.037,bandit task,2022.2.5,143.83046401651688,
167,0,167,0,,,,,,,,,,,,,,,,,129.6844173001591,129.6844173001591,129.6844173001591,129.6844173001591,129.6844173001591,o,0.4034061999991536,130.1001592001412,130.1001592001412,130.50323010003194,130.50323010003194,,,,,,,,,,,,,,,,,,,,,,,,,,,,,,,,,,,,,,,,12312,sdfsdfs,2023-04-13_19h18.40.037,bandit task,2022.2.5,143.83046401651688,
168,0,168,0,,,,,,,,,,,,,,,,,130.50323010003194,130.50323010003194,130.50323010003194,130.50323010003194,130.50323010003194,p,0.40582489990629256,130.9203765001148,130.9203765001148,131.3229019001592,131.3229019001592,,,,,,,,,,,,,,,,,,,,,,,,,,,,,,,,,,,,,,,,12312,sdfsdfs,2023-04-13_19h18.40.037,bandit task,2022.2.5,143.83046401651688,
169,0,169,0,,,,,,,,,,,,,,,,,131.3229019001592,131.3229019001592,131.3229019001592,131.3229019001592,131.3229019001592,o,0.3830472999252379,131.71933650015853,131.71933650015853,132.12147050001658,132.12147050001658,,,,,,,,,,,,,,,,,,,,,,,,,,,,,,,,,,,,,,,,12312,sdfsdfs,2023-04-13_19h18.40.037,bandit task,2022.2.5,143.83046401651688,
170,0,170,0,,,,,,,,,,,,,,,,,132.12147050001658,132.12147050001658,132.12147050001658,132.12147050001658,132.12147050001658,q,0.006319999927654862,132.1355876000598,132.1355876000598,132.53974999999627,132.53974999999627,,,,,,,,,,,,,,,,,,,,,,,,,,,,,,,,,,,,,,,,12312,sdfsdfs,2023-04-13_19h18.40.037,bandit task,2022.2.5,143.83046401651688,
171,0,171,0,,,,,,,,,,,,,,,,,132.53974999999627,132.53974999999627,132.53974999999627,132.53974999999627,132.53974999999627,w,0.3581250000279397,132.90696530020796,132.90696530020796,133.3094008001499,133.3094008001499,,,,,,,,,,,,,,,,,,,,,,,,,,,,,,,,,,,,,,,,12312,sdfsdfs,2023-04-13_19h18.40.037,bandit task,2022.2.5,143.83046401651688,
172,0,172,0,,,,,,,,,,,,,,,,,133.3094008001499,133.3094008001499,133.3094008001499,133.3094008001499,133.3094008001499,o,0.10156999994069338,133.41968590021133,133.41968590021133,133.82370500010438,133.82370500010438,,,,,,,,,,,,,,,,,,,,,,,,,,,,,,,,,,,,,,,,12312,sdfsdfs,2023-04-13_19h18.40.037,bandit task,2022.2.5,143.83046401651688,
173,0,173,0,,,,,,,,,,,,,,,,,133.82370500010438,133.82370500010438,133.82370500010438,133.82370500010438,133.82370500010438,p,0.39425030001439154,134.2279040000867,134.2279040000867,,,,,,,,,,,,,,,,,,,,,,,,,,,,,,,,,,,,,,,,,,12312,sdfsdfs,2023-04-13_19h18.40.037,bandit task,2022.2.5,143.83046401651688,
174,0,174,0,,,,,,,,,,,,,,,,,134.63583760010079,134.63583760010079,134.63583760010079,134.63583760010079,134.63583760010079,w,0.011047099949792027,134.65688140015118,134.65688140015118,135.05969160003588,135.05969160003588,,,,,,,,,,,,,,,,,,,,,,,,,,,,,,,,,,,,,,,,12312,sdfsdfs,2023-04-13_19h18.40.037,bandit task,2022.2.5,143.83046401651688,
175,0,175,0,,,,,,,,,,,,,,,,,135.05969160003588,135.05969160003588,135.05969160003588,135.05969160003588,135.05969160003588,q,0.28172799991443753,135.35206300020218,135.35206300020218,,,,,,,,,,,,,,,,,,,,,,,,,,,,,,,,,,,,,,,,,,12312,sdfsdfs,2023-04-13_19h18.40.037,bandit task,2022.2.5,143.83046401651688,
176,0,176,0,,,,,,,,,,,,,,,,,135.7605894000735,135.7605894000735,135.7605894000735,135.7605894000735,135.7605894000735,w,0.30329820001497865,136.07436270010658,136.07436270010658,136.47914570011199,136.47914570011199,,,,,,,,,,,,,,,,,,,,,,,,,,,,,,,,,,,,,,,,12312,sdfsdfs,2023-04-13_19h18.40.037,bandit task,2022.2.5,143.83046401651688,
177,0,177,0,,,,,,,,,,,,,,,,,136.47914570011199,136.47914570011199,136.47914570011199,136.47914570011199,136.47914570011199,q,0.33476080000400543,136.8233174001798,136.8233174001798,137.22559839999303,137.22559839999303,,,,,,,,,,,,,,,,,,,,,,,,,,,,,,,,,,,,,,,,12312,sdfsdfs,2023-04-13_19h18.40.037,bandit task,2022.2.5,143.83046401651688,
178,0,178,0,,,,,,,,,,,,,,,,,137.22559839999303,137.22559839999303,137.22559839999303,137.22559839999303,137.22559839999303,p,0.03458620002493262,137.27123429998755,137.27123429998755,,,,,,,,,,,,,,,,,,,,,,,,,,,,,,,,,,,,,,,,,,12312,sdfsdfs,2023-04-13_19h18.40.037,bandit task,2022.2.5,143.83046401651688,
179,0,179,0,,,,,,,,,,,,,,,,,137.67735910019837,137.67735910019837,137.67735910019837,137.67735910019837,137.67735910019837,w,0.04615779989399016,137.73379710013978,137.73379710013978,,,,,,,,,,,,,,,,,,,,,,,,,,,,,,,,,,,,,,,,,,12312,sdfsdfs,2023-04-13_19h18.40.037,bandit task,2022.2.5,143.83046401651688,
180,0,180,0,,,,,,,,,,,,,,,,,138.14212140021846,138.14212140021846,138.14212140021846,138.14212140021846,138.14212140021846,o,0.0167259001173079,138.17089000018314,138.17089000018314,138.5732646000106,138.5732646000106,,,,,,,,,,,,,,,,,,,,,,,,,,,,,,,,,,,,,,,,12312,sdfsdfs,2023-04-13_19h18.40.037,bandit task,2022.2.5,143.83046401651688,
181,0,181,0,,,,,,,,,,,,,,,,,138.5732646000106,138.5732646000106,138.5732646000106,138.5732646000106,138.5732646000106,p,0.4019220001064241,138.98377950000577,138.98377950000577,,,,,,,,,,,,,,,,,,,,,,,,,,,,,,,,,,,,,,,,,,12312,sdfsdfs,2023-04-13_19h18.40.037,bandit task,2022.2.5,143.83046401651688,
182,0,182,0,,,,,,,,,,,,,,,,,139.39259400009178,139.39259400009178,139.39259400009178,139.39259400009178,139.39259400009178,q,0.17892100010067225,139.58528750017285,139.58528750017285,,,,,,,,,,,,,,,,,,,,,,,,,,,,,,,,,,,,,,,,,,12312,sdfsdfs,2023-04-13_19h18.40.037,bandit task,2022.2.5,143.83046401651688,
183,0,183,0,,,,,,,,,,,,,,,,,139.9897449000273,139.9897449000273,139.9897449000273,139.9897449000273,139.9897449000273,p,0.06333929998800159,140.06744880019687,140.06744880019687,,,,,,,,,,,,,,,,,,,,,,,,,,,,,,,,,,,,,,,,,,12312,sdfsdfs,2023-04-13_19h18.40.037,bandit task,2022.2.5,143.83046401651688,
184,0,184,0,,,,,,,,,,,,,,,,,140.4756037001498,140.4756037001498,140.4756037001498,140.4756037001498,140.4756037001498,p,0.395807099994272,140.8807254000567,140.8807254000567,,,,,,,,,,,,,,,,,,,,,,,,,,,,,,,,,,,,,,,,,,12312,sdfsdfs,2023-04-13_19h18.40.037,bandit task,2022.2.5,143.83046401651688,
185,0,185,0,,,,,,,,,,,,,,,,,141.28859440004453,141.28859440004453,141.28859440004453,141.28859440004453,141.28859440004453,q,0.008053800091147423,141.3097076001577,141.3097076001577,141.71205830015242,141.71205830015242,,,,,,,,,,,,,,,,,,,,,,,,,,,,,,,,,,,,,,,,12312,sdfsdfs,2023-04-13_19h18.40.037,bandit task,2022.2.5,143.83046401651688,
186,0,186,0,,,,,,,,,,,,,,,,,141.71205830015242,141.71205830015242,141.71205830015242,141.71205830015242,141.71205830015242,p,0.007344500161707401,141.7328677000478,141.7328677000478,142.1357907000929,142.1357907000929,,,,,,,,,,,,,,,,,,,,,,,,,,,,,,,,,,,,,,,,12312,sdfsdfs,2023-04-13_19h18.40.037,bandit task,2022.2.5,143.83046401651688,
187,0,187,0,,,,,,,,,,,,,,,,,142.1357907000929,142.1357907000929,142.1357907000929,142.1357907000929,142.1357907000929,p,0.36372920009307563,142.5110169001855,142.5110169001855,142.91287270002067,142.91287270002067,,,,,,,,,,,,,,,,,,,,,,,,,,,,,,,,,,,,,,,,12312,sdfsdfs,2023-04-13_19h18.40.037,bandit task,2022.2.5,143.83046401651688,
188,0,188,0,,,,,,,,,,,,,,,,,142.91287270002067,142.91287270002067,142.91287270002067,142.91287270002067,142.91287270002067,q,0.014894699910655618,142.93807460018434,142.93807460018434,,,,,,,,,,,,,,,,,,,,,,,,,,,,,,,,,,,,,,,,,,12312,sdfsdfs,2023-04-13_19h18.40.037,bandit task,2022.2.5,143.83046401651688,
189,0,189,0,,,,,,,,,,,,,,,,,143.3438142000232,143.3438142000232,143.3438142000232,143.3438142000232,143.3438142000232,q,0.29618920013308525,143.65355910011567,143.65355910011567,,,,,,,,,,,,,,,,,,,,,,,,,,,,,,,,,,,,,,,,,,12312,sdfsdfs,2023-04-13_19h18.40.037,bandit task,2022.2.5,143.83046401651688,
190,0,190,0,,,,,,,,,,,,,,,,,144.05896450020373,144.05896450020373,144.05896450020373,144.05896450020373,144.05896450020373,q,0.298325999872759,144.3681046999991,144.3681046999991,,,,,,,,,,,,,,,,,,,,,,,,,,,,,,,,,,,,,,,,,,12312,sdfsdfs,2023-04-13_19h18.40.037,bandit task,2022.2.5,143.83046401651688,
191,0,191,0,,,,,,,,,,,,,,,,,144.77402150002308,144.77402150002308,144.77402150002308,144.77402150002308,144.77402150002308,q,0.2748948000371456,145.05997520009987,145.05997520009987,,,,,,,,,,,,,,,,,,,,,,,,,,,,,,,,,,,,,,,,,,12312,sdfsdfs,2023-04-13_19h18.40.037,bandit task,2022.2.5,143.83046401651688,
192,0,192,0,,,,,,,,,,,,,,,,,145.46296590007842,145.46296590007842,145.46296590007842,145.46296590007842,145.46296590007842,q,0.3437010000925511,145.81678240001202,145.81678240001202,146.21842829999514,146.21842829999514,,,,,,,,,,,,,,,,,,,,,,,,,,,,,,,,,,,,,,,,12312,sdfsdfs,2023-04-13_19h18.40.037,bandit task,2022.2.5,143.83046401651688,
193,0,193,0,,,,,,,,,,,,,,,,,146.21842829999514,146.21842829999514,146.21842829999514,146.21842829999514,146.21842829999514,p,0.005197300110012293,146.23360800021328,146.23360800021328,146.63546310015954,146.63546310015954,,,,,,,,,,,,,,,,,,,,,,,,,,,,,,,,,,,,,,,,12312,sdfsdfs,2023-04-13_19h18.40.037,bandit task,2022.2.5,143.83046401651688,
194,0,194,0,,,,,,,,,,,,,,,,,146.63546310015954,146.63546310015954,146.63546310015954,146.63546310015954,146.63546310015954,p,0.2854952998459339,146.93378750002012,146.93378750002012,147.3379290001467,147.3379290001467,,,,,,,,,,,,,,,,,,,,,,,,,,,,,,,,,,,,,,,,12312,sdfsdfs,2023-04-13_19h18.40.037,bandit task,2022.2.5,143.83046401651688,
195,0,195,0,,,,,,,,,,,,,,,,,147.3379290001467,147.3379290001467,147.3379290001467,147.3379290001467,147.3379290001467,p,0.30471549998037517,147.650986000197,147.650986000197,,,,,,,,,,,,,,,,,,,,,,,,,,,,,,,,,,,,,,,,,,12312,sdfsdfs,2023-04-13_19h18.40.037,bandit task,2022.2.5,143.83046401651688,
196,0,196,0,,,,,,,,,,,,,,,,,148.05916930013336,148.05916930013336,148.05916930013336,148.05916930013336,148.05916930013336,p,0.251467099878937,148.32311010011472,148.32311010011472,148.72535640001297,148.72535640001297,,,,,,,,,,,,,,,,,,,,,,,,,,,,,,,,,,,,,,,,12312,sdfsdfs,2023-04-13_19h18.40.037,bandit task,2022.2.5,143.83046401651688,
197,0,197,0,,,,,,,,,,,,,,,,,148.72535640001297,148.72535640001297,148.72535640001297,148.72535640001297,148.72535640001297,p,0.2796827000565827,149.01753310021013,149.01753310021013,149.42086180020124,149.42086180020124,,,,,,,,,,,,,,,,,,,,,,,,,,,,,,,,,,,,,,,,12312,sdfsdfs,2023-04-13_19h18.40.037,bandit task,2022.2.5,143.83046401651688,
198,0,198,0,,,,,,,,,,,,,,,,,149.42086180020124,149.42086180020124,149.42086180020124,149.42086180020124,149.42086180020124,p,0.3336099002044648,149.7660765000619,149.7660765000619,150.17017010017298,150.17017010017298,,,,,,,,,,,,,,,,,,,,,,,,,,,,,,,,,,,,,,,,12312,sdfsdfs,2023-04-13_19h18.40.037,bandit task,2022.2.5,143.83046401651688,
199,0,199,0,,,,,,,,,,,,,,,,,150.17017010017298,150.17017010017298,150.17017010017298,150.17017010017298,150.17017010017298,p,0.310160799883306,150.48806260013953,150.48806260013953,150.89282000018284,150.89282000018284,,,,,,,,,,,,,,,,,,,,,,,,,,,,,,,,,,,,,,,,12312,sdfsdfs,2023-04-13_19h18.40.037,bandit task,2022.2.5,143.83046401651688,
200,0,200,0,,,,,,,,,,,,,,,,,150.89282000018284,150.89282000018284,150.89282000018284,150.89282000018284,150.89282000018284,p,0.26828820002265275,151.17065330012701,151.17065330012701,151.57300110021606,151.57300110021606,,,,,,,,,,,,,,,,,,,,,,,,,,,,,,,,,,,,,,,,12312,sdfsdfs,2023-04-13_19h18.40.037,bandit task,2022.2.5,143.83046401651688,
201,0,201,0,,,,,,,,,,,,,,,,,151.57300110021606,151.57300110021606,151.57300110021606,151.57300110021606,151.57300110021606,p,0.27753130020573735,151.8594498001039,151.8594498001039,,,,,,,,,,,,,,,,,,,,,,,,,,,,,,,,,,,,,,,,,,12312,sdfsdfs,2023-04-13_19h18.40.037,bandit task,2022.2.5,143.83046401651688,
202,0,202,0,,,,,,,,,,,,,,,,,152.26748470007442,152.26748470007442,152.26748470007442,152.26748470007442,152.26748470007442,p,0.253533500013873,152.53162770019844,152.53162770019844,152.93390830000862,152.93390830000862,,,,,,,,,,,,,,,,,,,,,,,,,,,,,,,,,,,,,,,,12312,sdfsdfs,2023-04-13_19h18.40.037,bandit task,2022.2.5,143.83046401651688,
203,0,203,0,,,,,,,,,,,,,,,,,152.93390830000862,152.93390830000862,152.93390830000862,152.93390830000862,152.93390830000862,p,0.3603757999371737,153.30310770007782,153.30310770007782,,,,,,,,,,,,,,,,,,,,,,,,,,,,,,,,,,,,,,,,,,12312,sdfsdfs,2023-04-13_19h18.40.037,bandit task,2022.2.5,143.83046401651688,
204,0,204,0,,,,,,,,,,,,,,,,,153.7124110001605,153.7124110001605,153.7124110001605,153.7124110001605,153.7124110001605,p,0.3529807000886649,154.07702040020376,154.07702040020376,,,,,,,,,,,,,,,,,,,,,,,,,,,,,,,,,,,,,,,,,,12312,sdfsdfs,2023-04-13_19h18.40.037,bandit task,2022.2.5,143.83046401651688,
205,0,205,0,,,,,,,,,,,,,,,,,154.48332560015842,154.48332560015842,154.48332560015842,154.48332560015842,154.48332560015842,q,0.1567543998826295,154.65022410009988,154.65022410009988,155.05238620005548,155.05238620005548,,,,,,,,,,,,,,,,,,,,,,,,,,,,,,,,,,,,,,,,12312,sdfsdfs,2023-04-13_19h18.40.037,bandit task,2022.2.5,143.83046401651688,
206,0,206,0,,,,,,,,,,,,,,,,,155.05238620005548,155.05238620005548,155.05238620005548,155.05238620005548,155.05238620005548,p,0.03633640008047223,155.10071180015802,155.10071180015802,155.50645480002277,155.50645480002277,,,,,,,,,,,,,,,,,,,,,,,,,,,,,,,,,,,,,,,,12312,sdfsdfs,2023-04-13_19h18.40.037,bandit task,2022.2.5,143.83046401651688,
207,0,207,0,,,,,,,,,,,,,,,,,155.50645480002277,155.50645480002277,155.50645480002277,155.50645480002277,155.50645480002277,p,0.42689860006794333,155.94368970021605,155.94368970021605,,,,,,,,,,,,,,,,,,,,,,,,,,,,,,,,,,,,,,,,,,12312,sdfsdfs,2023-04-13_19h18.40.037,bandit task,2022.2.5,143.83046401651688,
208,0,208,0,,,,,,,,,,,,,,,,,156.35222070012242,156.35222070012242,156.35222070012242,156.35222070012242,156.35222070012242,q,0.17283479985781014,156.53844740008935,156.53844740008935,156.9413535001222,156.9413535001222,,,,,,,,,,,,,,,,,,,,,,,,,,,,,,,,,,,,,,,,12312,sdfsdfs,2023-04-13_19h18.40.037,bandit task,2022.2.5,143.83046401651688,
209,0,209,0,,,,,,,,,,,,,,,,,156.9413535001222,156.9413535001222,156.9413535001222,156.9413535001222,156.9413535001222,p,0.17095649987459183,157.1226940001361,157.1226940001361,,,,,,,,,,,,,,,,,,,,,,,,,,,,,,,,,,,,,,,,,,12312,sdfsdfs,2023-04-13_19h18.40.037,bandit task,2022.2.5,143.83046401651688,
210,0,210,0,,,,,,,,,,,,,,,,,157.52627800009213,157.52627800009213,157.52627800009213,157.52627800009213,157.52627800009213,q,0.12804410001263022,157.66622830019332,157.66622830019332,,,,,,,,,,,,,,,,,,,,,,,,,,,,,,,,,,,,,,,,,,12312,sdfsdfs,2023-04-13_19h18.40.037,bandit task,2022.2.5,143.83046401651688,
211,0,211,0,,,,,,,,,,,,,,,,,158.0731425001286,158.0731425001286,158.0731425001286,158.0731425001286,158.0731425001286,p,0.10489160008728504,158.18658680003136,158.18658680003136,,,,,,,,,,,,,,,,,,,,,,,,,,,,,,,,,,,,,,,,,,12312,sdfsdfs,2023-04-13_19h18.40.037,bandit task,2022.2.5,143.83046401651688,
212,0,212,0,,,,,,,,,,,,,,,,,158.59325310005806,158.59325310005806,158.59325310005806,158.59325310005806,158.59325310005806,q,0.044045699993148446,158.65022710012272,158.65022710012272,159.0526040000841,159.0526040000841,,,,,,,,,,,,,,,,,,,,,,,,,,,,,,,,,,,,,,,,12312,sdfsdfs,2023-04-13_19h18.40.037,bandit task,2022.2.5,143.83046401651688,
213,0,213,0,,,,,,,,,,,,,,,,,159.0526040000841,159.0526040000841,159.0526040000841,159.0526040000841,159.0526040000841,p,0.004024500027298927,159.0674961002078,159.0674961002078,,,,,,,,,,,,,,,,,,,,,,,,,,,,,,,,,,,,,,,,,,12312,sdfsdfs,2023-04-13_19h18.40.037,bandit task,2022.2.5,143.83046401651688,
214,0,214,0,,,,,,,,,,,,,,,,,159.47521390020847,159.47521390020847,159.47521390020847,159.47521390020847,159.47521390020847,q,0.052542899968102574,159.54343540011905,159.54343540011905,,,,,,,,,,,,,,,,,,,,,,,,,,,,,,,,,,,,,,,,,,12312,sdfsdfs,2023-04-13_19h18.40.037,bandit task,2022.2.5,143.83046401651688,
215,0,215,0,,,,,,,,,,,,,,,,,159.9484780000057,159.9484780000057,159.9484780000057,159.9484780000057,159.9484780000057,q,0.4305237999651581,160.39312000013888,160.39312000013888,,,,,,,,,,,,,,,,,,,,,,,,,,,,,,,,,,,,,,,,,,12312,sdfsdfs,2023-04-13_19h18.40.037,bandit task,2022.2.5,143.83046401651688,
216,0,216,0,,,,,,,,,,,,,,,,,160.80192940006964,160.80192940006964,160.80192940006964,160.80192940006964,160.80192940006964,p,0.0018217000178992748,160.8164860000834,160.8164860000834,161.2190202001948,161.2190202001948,,,,,,,,,,,,,,,,,,,,,,,,,,,,,,,,,,,,,,,,12312,sdfsdfs,2023-04-13_19h18.40.037,bandit task,2022.2.5,143.83046401651688,
217,0,217,0,,,,,,,,,,,,,,,,,161.2190202001948,161.2190202001948,161.2190202001948,161.2190202001948,161.2190202001948,q,0.009855000069364905,161.24093620013446,161.24093620013446,,,,,,,,,,,,,,,,,,,,,,,,,,,,,,,,,,,,,,,,,,12312,sdfsdfs,2023-04-13_19h18.40.037,bandit task,2022.2.5,143.83046401651688,
218,0,218,0,,,,,,,,,,,,,,,,,161.64885270013474,161.64885270013474,161.64885270013474,161.64885270013474,161.64885270013474,p,0.013465399853885174,161.67061170004308,161.67061170004308,162.07406960008666,162.07406960008666,,,,,,,,,,,,,,,,,,,,,,,,,,,,,,,,,,,,,,,,12312,sdfsdfs,2023-04-13_19h18.40.037,bandit task,2022.2.5,143.83046401651688,
219,0,219,0,,,,,,,,,,,,,,,,,162.07406960008666,162.07406960008666,162.07406960008666,162.07406960008666,162.07406960008666,q,0.02423590002581477,162.10833270009607,162.10833270009607,162.5101765000727,162.5101765000727,,,,,,,,,,,,,,,,,,,,,,,,,,,,,,,,,,,,,,,,12312,sdfsdfs,2023-04-13_19h18.40.037,bandit task,2022.2.5,143.83046401651688,
220,0,220,0,,,,,,,,,,,,,,,,,162.5101765000727,162.5101765000727,162.5101765000727,162.5101765000727,162.5101765000727,p,0.006770700216293335,162.52524790004827,162.52524790004827,,,,,,,,,,,,,,,,,,,,,,,,,,,,,,,,,,,,,,,,,,12312,sdfsdfs,2023-04-13_19h18.40.037,bandit task,2022.2.5,143.83046401651688,
221,0,221,0,,,,,,,,,,,,,,,,,162.93407170008868,162.93407170008868,162.93407170008868,162.93407170008868,162.93407170008868,q,0.006254999898374081,162.95126650016755,162.95126650016755,,,,,,,,,,,,,,,,,,,,,,,,,,,,,,,,,,,,,,,,,,12312,sdfsdfs,2023-04-13_19h18.40.037,bandit task,2022.2.5,143.83046401651688,
222,0,222,0,,,,,,,,,,,,,,,,,163.35836590011604,163.35836590011604,163.35836590011604,163.35836590011604,163.35836590011604,q,0.39607289992272854,163.76803140016273,163.76803140016273,164.17034200020134,164.17034200020134,,,,,,,,,,,,,,,,,,,,,,,,,,,,,,,,,,,,,,,,12312,sdfsdfs,2023-04-13_19h18.40.037,bandit task,2022.2.5,143.83046401651688,
223,0,223,0,,,,,,,,,,,,,,,,,164.17034200020134,164.17034200020134,164.17034200020134,164.17034200020134,164.17034200020134,p,0.08325010002590716,164.267562400084,164.267562400084,164.6700469001662,164.6700469001662,,,,,,,,,,,,,,,,,,,,,,,,,,,,,,,,,,,,,,,,12312,sdfsdfs,2023-04-13_19h18.40.037,bandit task,2022.2.5,143.83046401651688,
224,0,224,0,,,,,,,,,,,,,,,,,164.6700469001662,164.6700469001662,164.6700469001662,164.6700469001662,164.6700469001662,q,0.012692499905824661,164.6953573001083,164.6953573001083,,,,,,,,,,,,,,,,,,,,,,,,,,,,,,,,,,,,,,,,,,12312,sdfsdfs,2023-04-13_19h18.40.037,bandit task,2022.2.5,143.83046401651688,
225,0,225,0,,,,,,,,,,,,,,,,,165.10135800018907,165.10135800018907,165.10135800018907,165.10135800018907,165.10135800018907,w,0.39963350002653897,165.51205710018985,165.51205710018985,,,,,,,,,,,,,,,,,,,,,,,,,,,,,,,,,,,,,,,,,,12312,sdfsdfs,2023-04-13_19h18.40.037,bandit task,2022.2.5,143.83046401651688,
226,0,226,0,,,,,,,,,,,,,,,,,165.919857500121,165.919857500121,165.919857500121,165.919857500121,165.919857500121,o,0.020317200105637312,165.9511794000864,165.9511794000864,,,,,,,,,,,,,,,,,,,,,,,,,,,,,,,,,,,,,,,,,,12312,sdfsdfs,2023-04-13_19h18.40.037,bandit task,2022.2.5,143.83046401651688,
227,0,227,0,,,,,,,,,,,,,,,,,166.35752369998954,166.35752369998954,166.35752369998954,166.35752369998954,166.35752369998954,p,0.4051878999453038,166.77769610006362,166.77769610006362,,,,,,,,,,,,,,,,,,,,,,,,,,,,,,,,,,,,,,,,,,12312,sdfsdfs,2023-04-13_19h18.40.037,bandit task,2022.2.5,143.83046401651688,
228,0,228,0,,,,,,,,,,,,,,,,,167.1836238000542,167.1836238000542,167.1836238000542,167.1836238000542,167.1836238000542,q,0.14497049991041422,167.33847740013152,167.33847740013152,,,,,,,,,,,,,,,,,,,,,,,,,,,,,,,,,,,,,,,,,,12312,sdfsdfs,2023-04-13_19h18.40.037,bandit task,2022.2.5,143.83046401651688,
229,0,229,0,,,,,,,,,,,,,,,,,167.74656630004756,167.74656630004756,167.74656630004756,167.74656630004756,167.74656630004756,p,0.027269399957731366,167.7830535999965,167.7830535999965,,,,,,,,,,,,,,,,,,,,,,,,,,,,,,,,,,,,,,,,,,12312,sdfsdfs,2023-04-13_19h18.40.037,bandit task,2022.2.5,143.83046401651688,
230,0,230,0,,,,,,,,,,,,,,,,,168.19111010013148,168.19111010013148,168.19111010013148,168.19111010013148,168.19111010013148,w,0.045307999942451715,168.2466630002018,168.2466630002018,168.64948730007745,168.64948730007745,,,,,,,,,,,,,,,,,,,,,,,,,,,,,,,,,,,,,,,,12312,sdfsdfs,2023-04-13_19h18.40.037,bandit task,2022.2.5,143.83046401651688,
231,0,231,0,,,,,,,,,,,,,,,,,168.64948730007745,168.64948730007745,168.64948730007745,168.64948730007745,168.64948730007745,o,0.011132500134408474,168.67143920017406,168.67143920017406,,,,,,,,,,,,,,,,,,,,,,,,,,,,,,,,,,,,,,,,,,12312,sdfsdfs,2023-04-13_19h18.40.037,bandit task,2022.2.5,143.83046401651688,
232,0,232,0,,,,,,,,,,,,,,,,,169.07995390007272,169.07995390007272,169.07995390007272,169.07995390007272,169.07995390007272,q,0.009962700074538589,169.1017511000391,169.1017511000391,169.50307970005088,169.50307970005088,,,,,,,,,,,,,,,,,,,,,,,,,,,,,,,,,,,,,,,,12312,sdfsdfs,2023-04-13_19h18.40.037,bandit task,2022.2.5,143.83046401651688,
233,0,233,0,,,,,,,,,,,,,,,,,169.50307970005088,169.50307970005088,169.50307970005088,169.50307970005088,169.50307970005088,w,0.35908760013990104,169.87271670019254,169.87271670019254,,,,,,,,,,,,,,,,,,,,,,,,,,,,,,,,,,,,,,,,,,12312,sdfsdfs,2023-04-13_19h18.40.037,bandit task,2022.2.5,143.83046401651688,
234,0,234,0,,,,,,,,,,,,,,,,,170.28137210011482,170.28137210011482,170.28137210011482,170.28137210011482,170.28137210011482,o,0.02689410001039505,170.31883100001141,170.31883100001141,,,,,,,,,,,,,,,,,,,,,,,,,,,,,,,,,,,,,,,,,,12312,sdfsdfs,2023-04-13_19h18.40.037,bandit task,2022.2.5,143.83046401651688,
235,0,235,0,,,,,,,,,,,,,,,,,170.72532850014977,170.72532850014977,170.72532850014977,170.72532850014977,170.72532850014977,p,0.39397810003720224,171.13049080013297,171.13049080013297,,,,,,,,,,,,,,,,,,,,,,,,,,,,,,,,,,,,,,,,,,12312,sdfsdfs,2023-04-13_19h18.40.037,bandit task,2022.2.5,143.83046401651688,
236,0,236,0,,,,,,,,,,,,,,,,,171.53848680015653,171.53848680015653,171.53848680015653,171.53848680015653,171.53848680015653,w,0.01856140000745654,171.5694207001943,171.5694207001943,,,,,,,,,,,,,,,,,,,,,,,,,,,,,,,,,,,,,,,,,,12312,sdfsdfs,2023-04-13_19h18.40.037,bandit task,2022.2.5,143.83046401651688,
237,0,237,0,,,,,,,,,,,,,,,,,171.9751789001748,171.9751789001748,171.9751789001748,171.9751789001748,171.9751789001748,q,0.31740169995464385,172.303046700079,172.303046700079,,,,,,,,,,,,,,,,,,,,,,,,,,,,,,,,,,,,,,,,,,12312,sdfsdfs,2023-04-13_19h18.40.037,bandit task,2022.2.5,143.83046401651688,
238,0,238,0,,,,,,,,,,,,,,,,,172.71216360013932,172.71216360013932,172.71216360013932,172.71216360013932,172.71216360013932,o,0.6778376998845488,173.40152840013616,173.40152840013616,,,,,,,,,,,,,,,,,,,,,,,,,,,,,,,,,,,,,,,,,,12312,sdfsdfs,2023-04-13_19h18.40.037,bandit task,2022.2.5,143.83046401651688,
239,0,239,0,0,0,0,0,,,,,,,,,,,,,173.8085358000826,173.8085358000826,173.8085358000826,173.8085358000826,173.8085358000826,p,0.30152509990148246,174.12189850001596,174.12189850001596,174.5323669000063,174.5323669000063,174.5323669000063,174.5323669000063,space,1.4458910999819636,,,,,,,,,,,,,,,,,,,,,,,,,,,,,,,,,,,,12312,sdfsdfs,2023-04-13_19h18.40.037,bandit task,2022.2.5,143.83046401651688,
239,0,239,0,,,,,,,,,,,,,,,,,,,,,,,,,,,,,,,,,,,,,,,,,,,,,,,,,,,,,,,,,,,,,,,,,,,12312,sdfsdfs,2023-04-13_19h18.40.037,bandit task,2022.2.5,143.83046401651688,
,,,,,,,,,,,,,,,,,,,,,,,,,,,,,,,,,,,175.98793040006422,175.98793040006422,space,28.29936850001104,,,,,,,,,,,,,,,,,,,,,,,,,,,,,,,,12312,sdfsdfs,2023-04-13_19h18.40.037,bandit task,2022.2.5,143.83046401651688,
,,,,,,,,0,0,0,0,,,,,,,,,,,,,,,,,,,,,,,,,,,,204.30648680008017,204.30648680008017,204.30648680008017,204.30648680008017,204.30648680008017,204.30648680008017,204.30648680008017,204.30648680008017,204.30648680008017,q,0.8528293999843299,205.17146250000224,205.17146250000224,205.17146250000224,205.17146250000224,205.57471489999443,205.57471489999443,,,,,,,,,,,,,,,12312,sdfsdfs,2023-04-13_19h18.40.037,bandit task,2022.2.5,143.83046401651688,
,,,,,,,,1,0,1,0,,,,,,,,,,,,,,,,,,,,,,,,,,,,205.57471489999443,205.57471489999443,205.57471489999443,205.57471489999443,205.57471489999443,205.57471489999443,205.57471489999443,205.57471489999443,205.57471489999443,w,0.041502200067043304,205.62552360002883,205.62552360002883,205.62552360002883,205.62552360002883,206.03181810001843,206.03181810001843,,,,,,,,,,,,,,,12312,sdfsdfs,2023-04-13_19h18.40.037,bandit task,2022.2.5,143.83046401651688,
,,,,,,,,2,0,2,0,,,,,,,,,,,,,,,,,,,,,,,,,,,,206.03181810001843,206.03181810001843,206.03181810001843,206.03181810001843,206.03181810001843,206.03181810001843,206.03181810001843,206.03181810001843,206.03181810001843,q,0.3459910999517888,206.38934390014037,206.38934390014037,206.38934390014037,206.38934390014037,206.79574860003777,206.79574860003777,,,,,,,,,,,,,,,12312,sdfsdfs,2023-04-13_19h18.40.037,bandit task,2022.2.5,143.83046401651688,
,,,,,,,,3,0,3,0,,,,,,,,,,,,,,,,,,,,,,,,,,,,206.79574860003777,206.79574860003777,206.79574860003777,206.79574860003777,206.79574860003777,206.79574860003777,206.79574860003777,206.79574860003777,206.79574860003777,p,0.036860299995169044,206.84447000012733,206.84447000012733,206.84447000012733,206.84447000012733,207.2465592001099,207.2465592001099,,,,,,,,,,,,,,,12312,sdfsdfs,2023-04-13_19h18.40.037,bandit task,2022.2.5,143.83046401651688,
,,,,,,,,4,0,4,0,,,,,,,,,,,,,,,,,,,,,,,,,,,,207.2465592001099,207.2465592001099,207.2465592001099,207.2465592001099,207.2465592001099,207.2465592001099,207.2465592001099,207.2465592001099,207.2465592001099,w,0.0067599001340568066,207.2632986002136,207.2632986002136,207.2632986002136,207.2632986002136,207.67061870009638,207.67061870009638,,,,,,,,,,,,,,,12312,sdfsdfs,2023-04-13_19h18.40.037,bandit task,2022.2.5,143.83046401651688,
,,,,,,,,5,0,5,0,,,,,,,,,,,,,,,,,,,,,,,,,,,,207.67061870009638,207.67061870009638,207.67061870009638,207.67061870009638,207.67061870009638,207.67061870009638,207.67061870009638,207.67061870009638,207.67061870009638,q,0.6879688000772148,208.3658910000231,208.3658910000231,208.3658910000231,208.3658910000231,208.77400090009905,208.77400090009905,,,,,,,,,,,,,,,12312,sdfsdfs,2023-04-13_19h18.40.037,bandit task,2022.2.5,143.83046401651688,
,,,,,,,,6,0,6,0,,,,,,,,,,,,,,,,,,,,,,,,,,,,208.77400090009905,208.77400090009905,208.77400090009905,208.77400090009905,208.77400090009905,208.77400090009905,208.77400090009905,208.77400090009905,208.77400090009905,p,0.08243860001675785,208.86663200007752,208.86663200007752,208.86663200007752,208.86663200007752,209.27488450007513,209.27488450007513,,,,,,,,,,,,,,,12312,sdfsdfs,2023-04-13_19h18.40.037,bandit task,2022.2.5,143.83046401651688,
,,,,,,,,7,0,7,0,,,,,,,,,,,,,,,,,,,,,,,,,,,,209.27488450007513,209.27488450007513,209.27488450007513,209.27488450007513,209.27488450007513,209.27488450007513,209.27488450007513,209.27488450007513,209.27488450007513,w,0.049377999966964126,209.3374203001149,209.3374203001149,209.3374203001149,209.3374203001149,209.74041770002805,209.74041770002805,,,,,,,,,,,,,,,12312,sdfsdfs,2023-04-13_19h18.40.037,bandit task,2022.2.5,143.83046401651688,
,,,,,,,,8,0,8,0,,,,,,,,,,,,,,,,,,,,,,,,,,,,209.74041770002805,209.74041770002805,209.74041770002805,209.74041770002805,209.74041770002805,209.74041770002805,209.74041770002805,209.74041770002805,209.74041770002805,o,0.06841770000755787,209.81662090006284,209.81662090006284,209.81662090006284,209.81662090006284,210.21897730021738,210.21897730021738,,,,,,,,,,,,,,,12312,sdfsdfs,2023-04-13_19h18.40.037,bandit task,2022.2.5,143.83046401651688,
,,,,,,,,9,0,9,0,,,,,,,,,,,,,,,,,,,,,,,,,,,,210.21897730021738,210.21897730021738,210.21897730021738,210.21897730021738,210.21897730021738,210.21897730021738,210.21897730021738,210.21897730021738,210.21897730021738,q,0.05131249991245568,210.28106800001115,210.28106800001115,210.28106800001115,210.28106800001115,210.68368970020674,210.68368970020674,,,,,,,,,,,,,,,12312,sdfsdfs,2023-04-13_19h18.40.037,bandit task,2022.2.5,143.83046401651688,
,,,,,,,,10,0,10,0,,,,,,,,,,,,,,,,,,,,,,,,,,,,210.68368970020674,210.68368970020674,210.68368970020674,210.68368970020674,210.68368970020674,210.68368970020674,210.68368970020674,210.68368970020674,210.68368970020674,p,0.041321600088849664,210.73504800000228,210.73504800000228,210.73504800000228,210.73504800000228,211.14226480014622,211.14226480014622,,,,,,,,,,,,,,,12312,sdfsdfs,2023-04-13_19h18.40.037,bandit task,2022.2.5,143.83046401651688,
,,,,,,,,11,0,11,0,,,,,,,,,,,,,,,,,,,,,,,,,,,,211.14226480014622,211.14226480014622,211.14226480014622,211.14226480014622,211.14226480014622,211.14226480014622,211.14226480014622,211.14226480014622,211.14226480014622,o,0.4112476999871433,211.56850729999132,211.56850729999132,211.56850729999132,211.56850729999132,211.976401100168,211.976401100168,,,,,,,,,,,,,,,12312,sdfsdfs,2023-04-13_19h18.40.037,bandit task,2022.2.5,143.83046401651688,
,,,,,,,,12,0,12,0,,,,,,,,,,,,,,,,,,,,,,,,,,,,211.976401100168,211.976401100168,211.976401100168,211.976401100168,211.976401100168,211.976401100168,211.976401100168,211.976401100168,211.976401100168,q,0.04670009994879365,212.03254889999516,212.03254889999516,212.03254889999516,212.03254889999516,212.43461140012369,212.43461140012369,,,,,,,,,,,,,,,12312,sdfsdfs,2023-04-13_19h18.40.037,bandit task,2022.2.5,143.83046401651688,
,,,,,,,,13,0,13,0,,,,,,,,,,,,,,,,,,,,,,,,,,,,212.43461140012369,212.43461140012369,212.43461140012369,212.43461140012369,212.43461140012369,212.43461140012369,212.43461140012369,212.43461140012369,212.43461140012369,w,0.3960092000197619,212.84734420012683,212.84734420012683,212.84734420012683,212.84734420012683,213.2537125002127,213.2537125002127,,,,,,,,,,,,,,,12312,sdfsdfs,2023-04-13_19h18.40.037,bandit task,2022.2.5,143.83046401651688,
,,,,,,,,14,0,14,0,,,,,,,,,,,,,,,,,,,,,,,,,,,,213.2537125002127,213.2537125002127,213.2537125002127,213.2537125002127,213.2537125002127,213.2537125002127,213.2537125002127,213.2537125002127,213.2537125002127,o,0.12735210009850562,213.39481610013172,213.39481610013172,213.39481610013172,213.39481610013172,213.80228650011122,213.80228650011122,,,,,,,,,,,,,,,12312,sdfsdfs,2023-04-13_19h18.40.037,bandit task,2022.2.5,143.83046401651688,
,,,,,,,,15,0,15,0,,,,,,,,,,,,,,,,,,,,,,,,,,,,213.80228650011122,213.80228650011122,213.80228650011122,213.80228650011122,213.80228650011122,213.80228650011122,213.80228650011122,213.80228650011122,213.80228650011122,q,0.045594000024721026,213.8587933999952,213.8587933999952,213.8587933999952,213.8587933999952,214.26664990000427,214.26664990000427,,,,,,,,,,,,,,,12312,sdfsdfs,2023-04-13_19h18.40.037,bandit task,2022.2.5,143.83046401651688,
,,,,,,,,16,0,16,0,,,,,,,,,,,,,,,,,,,,,,,,,,,,214.26664990000427,214.26664990000427,214.26664990000427,214.26664990000427,214.26664990000427,214.26664990000427,214.26664990000427,214.26664990000427,214.26664990000427,p,0.021648599999025464,214.30315860011615,214.30315860011615,214.30315860011615,214.30315860011615,214.70569230010733,214.70569230010733,,,,,,,,,,,,,,,12312,sdfsdfs,2023-04-13_19h18.40.037,bandit task,2022.2.5,143.83046401651688,
,,,,,,,,17,0,17,0,,,,,,,,,,,,,,,,,,,,,,,,,,,,214.70569230010733,214.70569230010733,214.70569230010733,214.70569230010733,214.70569230010733,214.70569230010733,214.70569230010733,214.70569230010733,214.70569230010733,w,0.013054299866780639,214.72745050000958,214.72745050000958,214.72745050000958,214.72745050000958,215.13516529998742,215.13516529998742,,,,,,,,,,,,,,,12312,sdfsdfs,2023-04-13_19h18.40.037,bandit task,2022.2.5,143.83046401651688,
,,,,,,,,18,0,18,0,,,,,,,,,,,,,,,,,,,,,,,,,,,,215.13516529998742,215.13516529998742,215.13516529998742,215.13516529998742,215.13516529998742,215.13516529998742,215.13516529998742,215.13516529998742,215.13516529998742,o,0.014127100119367242,215.157537400024,215.157537400024,215.157537400024,215.157537400024,215.5657377000898,215.5657377000898,,,,,,,,,,,,,,,12312,sdfsdfs,2023-04-13_19h18.40.037,bandit task,2022.2.5,143.83046401651688,
,,,,,,,,19,0,19,0,,,,,,,,,,,,,,,,,,,,,,,,,,,,215.5657377000898,215.5657377000898,215.5657377000898,215.5657377000898,215.5657377000898,215.5657377000898,215.5657377000898,215.5657377000898,215.5657377000898,q,0.3293251998256892,215.90429880004376,215.90429880004376,215.90429880004376,215.90429880004376,216.30847210017964,216.30847210017964,,,,,,,,,,,,,,,12312,sdfsdfs,2023-04-13_19h18.40.037,bandit task,2022.2.5,143.83046401651688,
,,,,,,,,20,0,20,0,,,,,,,,,,,,,,,,,,,,,,,,,,,,216.30847210017964,216.30847210017964,216.30847210017964,216.30847210017964,216.30847210017964,216.30847210017964,216.30847210017964,216.30847210017964,216.30847210017964,p,0.058883799938485026,216.3799909001682,216.3799909001682,216.3799909001682,216.3799909001682,216.7883420002181,216.7883420002181,,,,,,,,,,,,,,,12312,sdfsdfs,2023-04-13_19h18.40.037,bandit task,2022.2.5,143.83046401651688,
,,,,,,,,21,0,21,0,,,,,,,,,,,,,,,,,,,,,,,,,,,,216.7883420002181,216.7883420002181,216.7883420002181,216.7883420002181,216.7883420002181,216.7883420002181,216.7883420002181,216.7883420002181,216.7883420002181,w,0.015145199839025736,216.81676110019907,216.81676110019907,216.81676110019907,216.81676110019907,217.21865819999948,217.21865819999948,,,,,,,,,,,,,,,12312,sdfsdfs,2023-04-13_19h18.40.037,bandit task,2022.2.5,143.83046401651688,
,,,,,,,,22,0,22,0,,,,,,,,,,,,,,,,,,,,,,,,,,,,217.21865819999948,217.21865819999948,217.21865819999948,217.21865819999948,217.21865819999948,217.21865819999948,217.21865819999948,217.21865819999948,217.21865819999948,o,0.05849640001542866,217.29208650020882,217.29208650020882,217.29208650020882,217.29208650020882,217.69741510017775,217.69741510017775,,,,,,,,,,,,,,,12312,sdfsdfs,2023-04-13_19h18.40.037,bandit task,2022.2.5,143.83046401651688,
,,,,,,,,23,0,23,0,,,,,,,,,,,,,,,,,,,,,,,,,,,,217.69741510017775,217.69741510017775,217.69741510017775,217.69741510017775,217.69741510017775,217.69741510017775,217.69741510017775,217.69741510017775,217.69741510017775,q,0.07671179994940758,217.7829152001068,217.7829152001068,217.7829152001068,217.7829152001068,218.19145010015927,218.19145010015927,,,,,,,,,,,,,,,12312,sdfsdfs,2023-04-13_19h18.40.037,bandit task,2022.2.5,143.83046401651688,
,,,,,,,,24,0,24,0,,,,,,,,,,,,,,,,,,,,,,,,,,,,218.19145010015927,218.19145010015927,218.19145010015927,218.19145010015927,218.19145010015927,218.19145010015927,218.19145010015927,218.19145010015927,218.19145010015927,w,0.3690277000423521,218.57691150018945,218.57691150018945,218.57691150018945,218.57691150018945,218.98223350010812,218.98223350010812,,,,,,,,,,,,,,,12312,sdfsdfs,2023-04-13_19h18.40.037,bandit task,2022.2.5,143.83046401651688,
,,,,,,,,25,0,25,0,,,,,,,,,,,,,,,,,,,,,,,,,,,,218.98223350010812,218.98223350010812,218.98223350010812,218.98223350010812,218.98223350010812,218.98223350010812,218.98223350010812,218.98223350010812,218.98223350010812,o,0.08453870005905628,219.0772749001626,219.0772749001626,219.0772749001626,219.0772749001626,219.482728500152,219.482728500152,,,,,,,,,,,,,,,12312,sdfsdfs,2023-04-13_19h18.40.037,bandit task,2022.2.5,143.83046401651688,
,,,,,,,,26,0,26,0,,,,,,,,,,,,,,,,,,,,,,,,,,,,219.482728500152,219.482728500152,219.482728500152,219.482728500152,219.482728500152,219.482728500152,219.482728500152,219.482728500152,219.482728500152,q,0.12740730005316436,219.62543750018813,219.62543750018813,219.62543750018813,219.62543750018813,220.03172490000725,220.03172490000725,,,,,,,,,,,,,,,12312,sdfsdfs,2023-04-13_19h18.40.037,bandit task,2022.2.5,143.83046401651688,
,,,,,,,,27,0,27,0,,,,,,,,,,,,,,,,,,,,,,,,,,,,220.03172490000725,220.03172490000725,220.03172490000725,220.03172490000725,220.03172490000725,220.03172490000725,220.03172490000725,220.03172490000725,220.03172490000725,w,0.40156669984571636,220.44337330013514,220.44337330013514,220.44337330013514,220.44337330013514,220.8509248001501,220.8509248001501,,,,,,,,,,,,,,,12312,sdfsdfs,2023-04-13_19h18.40.037,bandit task,2022.2.5,143.83046401651688,
,,,,,,,,28,0,28,0,,,,,,,,,,,,,,,,,,,,,,,,,,,,220.8509248001501,220.8509248001501,220.8509248001501,220.8509248001501,220.8509248001501,220.8509248001501,220.8509248001501,220.8509248001501,220.8509248001501,o,0.03636960010044277,220.89635760011151,220.89635760011151,220.89635760011151,220.89635760011151,221.3018923001364,221.3018923001364,,,,,,,,,,,,,,,12312,sdfsdfs,2023-04-13_19h18.40.037,bandit task,2022.2.5,143.83046401651688,
,,,,,,,,29,0,29,0,,,,,,,,,,,,,,,,,,,,,,,,,,,,221.3018923001364,221.3018923001364,221.3018923001364,221.3018923001364,221.3018923001364,221.3018923001364,221.3018923001364,221.3018923001364,221.3018923001364,q,0.05489480006508529,221.36660489998758,221.36660489998758,221.36660489998758,221.36660489998758,221.77396520017646,221.77396520017646,,,,,,,,,,,,,,,12312,sdfsdfs,2023-04-13_19h18.40.037,bandit task,2022.2.5,143.83046401651688,
,,,,,,,,30,0,30,0,,,,,,,,,,,,,,,,,,,,,,,,,,,,221.77396520017646,221.77396520017646,221.77396520017646,221.77396520017646,221.77396520017646,221.77396520017646,221.77396520017646,221.77396520017646,221.77396520017646,p,0.05059720017015934,221.83782460005023,221.83782460005023,221.83782460005023,221.83782460005023,222.23904110002331,222.23904110002331,,,,,,,,,,,,,,,12312,sdfsdfs,2023-04-13_19h18.40.037,bandit task,2022.2.5,143.83046401651688,
,,,,,,,,31,0,31,0,,,,,,,,,,,,,,,,,,,,,,,,,,,,222.23904110002331,222.23904110002331,222.23904110002331,222.23904110002331,222.23904110002331,222.23904110002331,222.23904110002331,222.23904110002331,222.23904110002331,w,0.04637140012346208,222.29641060018912,222.29641060018912,222.29641060018912,222.29641060018912,222.70533440005966,222.70533440005966,,,,,,,,,,,,,,,12312,sdfsdfs,2023-04-13_19h18.40.037,bandit task,2022.2.5,143.83046401651688,
,,,,,,,,32,0,32,0,,,,,,,,,,,,,,,,,,,,,,,,,,,,222.70533440005966,222.70533440005966,222.70533440005966,222.70533440005966,222.70533440005966,222.70533440005966,222.70533440005966,222.70533440005966,222.70533440005966,o,0.038654099917039275,222.75576440012082,222.75576440012082,222.75576440012082,222.75576440012082,223.16261040000245,223.16261040000245,,,,,,,,,,,,,,,12312,sdfsdfs,2023-04-13_19h18.40.037,bandit task,2022.2.5,143.83046401651688,
,,,,,,,,33,0,33,0,,,,,,,,,,,,,,,,,,,,,,,,,,,,223.16261040000245,223.16261040000245,223.16261040000245,223.16261040000245,223.16261040000245,223.16261040000245,223.16261040000245,223.16261040000245,223.16261040000245,q,0.05016100010834634,223.22804920002818,223.22804920002818,223.22804920002818,223.22804920002818,223.63593550003134,223.63593550003134,,,,,,,,,,,,,,,12312,sdfsdfs,2023-04-13_19h18.40.037,bandit task,2022.2.5,143.83046401651688,
,,,,,,,,34,0,34,0,,,,,,,,,,,,,,,,,,,,,,,,,,,,223.63593550003134,223.63593550003134,223.63593550003134,223.63593550003134,223.63593550003134,223.63593550003134,223.63593550003134,223.63593550003134,223.63593550003134,w,0.38986769993789494,224.03521650005132,224.03521650005132,224.03521650005132,224.03521650005132,224.44083139998838,224.44083139998838,,,,,,,,,,,,,,,12312,sdfsdfs,2023-04-13_19h18.40.037,bandit task,2022.2.5,143.83046401651688,
,,,,,,,,35,0,35,0,,,,,,,,,,,,,,,,,,,,,,,,,,,,224.44083139998838,224.44083139998838,224.44083139998838,224.44083139998838,224.44083139998838,224.44083139998838,224.44083139998838,224.44083139998838,224.44083139998838,o,0.0627008001320064,224.51250340021215,224.51250340021215,224.51250340021215,224.51250340021215,224.92051640013233,224.92051640013233,,,,,,,,,,,,,,,12312,sdfsdfs,2023-04-13_19h18.40.037,bandit task,2022.2.5,143.83046401651688,
,,,,,,,,36,0,36,0,,,,,,,,,,,,,,,,,,,,,,,,,,,,224.92051640013233,224.92051640013233,224.92051640013233,224.92051640013233,224.92051640013233,224.92051640013233,224.92051640013233,224.92051640013233,224.92051640013233,q,0.031055700033903122,224.96240830002353,224.96240830002353,224.96240830002353,224.96240830002353,225.36435750010423,225.36435750010423,,,,,,,,,,,,,,,12312,sdfsdfs,2023-04-13_19h18.40.037,bandit task,2022.2.5,143.83046401651688,
,,,,,,,,37,0,37,0,,,,,,,,,,,,,,,,,,,,,,,,,,,,225.36435750010423,225.36435750010423,225.36435750010423,225.36435750010423,225.36435750010423,225.36435750010423,225.36435750010423,225.36435750010423,225.36435750010423,w,0.3812418000306934,225.75472369999625,225.75472369999625,225.75472369999625,225.75472369999625,226.16320850001648,226.16320850001648,,,,,,,,,,,,,,,12312,sdfsdfs,2023-04-13_19h18.40.037,bandit task,2022.2.5,143.83046401651688,
,,,,,,,,38,0,38,0,,,,,,,,,,,,,,,,,,,,,,,,,,,,226.16320850001648,226.16320850001648,226.16320850001648,226.16320850001648,226.16320850001648,226.16320850001648,226.16320850001648,226.16320850001648,226.16320850001648,o,0.04417669982649386,226.22061530011706,226.22061530011706,226.22061530011706,226.22061530011706,226.62796479999088,226.62796479999088,,,,,,,,,,,,,,,12312,sdfsdfs,2023-04-13_19h18.40.037,bandit task,2022.2.5,143.83046401651688,
,,,,,,,,39,0,39,0,,,,,,,,,,,,,,,,,,,,,,,,,,,,226.62796479999088,226.62796479999088,226.62796479999088,226.62796479999088,226.62796479999088,226.62796479999088,226.62796479999088,226.62796479999088,226.62796479999088,q,0.0012525999918580055,226.64263150002807,226.64263150002807,226.64263150002807,226.64263150002807,227.04516440001316,227.04516440001316,,,,,,,,,,,,,,,12312,sdfsdfs,2023-04-13_19h18.40.037,bandit task,2022.2.5,143.83046401651688,
,,,,,,,,40,0,40,0,,,,,,,,,,,,,,,,,,,,,,,,,,,,227.04516440001316,227.04516440001316,227.04516440001316,227.04516440001316,227.04516440001316,227.04516440001316,227.04516440001316,227.04516440001316,227.04516440001316,p,0.009106500074267387,227.0667729000561,227.0667729000561,227.0667729000561,227.0667729000561,227.46843680017628,227.46843680017628,,,,,,,,,,,,,,,12312,sdfsdfs,2023-04-13_19h18.40.037,bandit task,2022.2.5,143.83046401651688,
,,,,,,,,41,0,41,0,,,,,,,,,,,,,,,,,,,,,,,,,,,,227.46843680017628,227.46843680017628,227.46843680017628,227.46843680017628,227.46843680017628,227.46843680017628,227.46843680017628,227.46843680017628,227.46843680017628,w,0.02717999997548759,227.50473530008458,227.50473530008458,227.50473530008458,227.50473530008458,227.91601700009778,227.91601700009778,,,,,,,,,,,,,,,12312,sdfsdfs,2023-04-13_19h18.40.037,bandit task,2022.2.5,143.83046401651688,
,,,,,,,,42,0,42,0,,,,,,,,,,,,,,,,,,,,,,,,,,,,227.91601700009778,227.91601700009778,227.91601700009778,227.91601700009778,227.91601700009778,227.91601700009778,227.91601700009778,227.91601700009778,227.91601700009778,q,0.3757630998734385,228.30364520009607,228.30364520009607,228.30364520009607,228.30364520009607,228.71245420002379,228.71245420002379,,,,,,,,,,,,,,,12312,sdfsdfs,2023-04-13_19h18.40.037,bandit task,2022.2.5,143.83046401651688,
,,,,,,,,43,0,43,0,,,,,,,,,,,,,,,,,,,,,,,,,,,,228.71245420002379,228.71245420002379,228.71245420002379,228.71245420002379,228.71245420002379,228.71245420002379,228.71245420002379,228.71245420002379,228.71245420002379,p,0.04905580007471144,228.77686400013044,228.77686400013044,228.77686400013044,228.77686400013044,229.1836864000652,229.1836864000652,,,,,,,,,,,,,,,12312,sdfsdfs,2023-04-13_19h18.40.037,bandit task,2022.2.5,143.83046401651688,
,,,,,,,,44,0,44,0,,,,,,,,,,,,,,,,,,,,,,,,,,,,229.1836864000652,229.1836864000652,229.1836864000652,229.1836864000652,229.1836864000652,229.1836864000652,229.1836864000652,229.1836864000652,229.1836864000652,w,0.13386030006222427,229.33007690007798,229.33007690007798,229.33007690007798,229.33007690007798,229.73266210011207,229.73266210011207,,,,,,,,,,,,,,,12312,sdfsdfs,2023-04-13_19h18.40.037,bandit task,2022.2.5,143.83046401651688,
,,,,,,,,45,0,45,0,,,,,,,,,,,,,,,,,,,,,,,,,,,,229.73266210011207,229.73266210011207,229.73266210011207,229.73266210011207,229.73266210011207,229.73266210011207,229.73266210011207,229.73266210011207,229.73266210011207,q,0.3865907001309097,230.12918270006776,230.12918270006776,230.12918270006776,230.12918270006776,230.53136910009198,230.53136910009198,,,,,,,,,,,,,,,12312,sdfsdfs,2023-04-13_19h18.40.037,bandit task,2022.2.5,143.83046401651688,
,,,,,,,,46,0,46,0,,,,,,,,,,,,,,,,,,,,,,,,,,,,230.53136910009198,230.53136910009198,230.53136910009198,230.53136910009198,230.53136910009198,230.53136910009198,230.53136910009198,230.53136910009198,230.53136910009198,p,0.012942500179633498,230.55546490009874,230.55546490009874,230.55546490009874,230.55546490009874,230.96197030018084,230.96197030018084,,,,,,,,,,,,,,,12312,sdfsdfs,2023-04-13_19h18.40.037,bandit task,2022.2.5,143.83046401651688,
,,,,,,,,47,0,47,0,,,,,,,,,,,,,,,,,,,,,,,,,,,,230.96197030018084,230.96197030018084,230.96197030018084,230.96197030018084,230.96197030018084,230.96197030018084,230.96197030018084,230.96197030018084,230.96197030018084,w,0.0013875998556613922,230.97619960014708,230.97619960014708,230.97619960014708,230.97619960014708,231.37820090004243,231.37820090004243,,,,,,,,,,,,,,,12312,sdfsdfs,2023-04-13_19h18.40.037,bandit task,2022.2.5,143.83046401651688,
,,,,,,,,48,0,48,0,,,,,,,,,,,,,,,,,,,,,,,,,,,,231.37820090004243,231.37820090004243,231.37820090004243,231.37820090004243,231.37820090004243,231.37820090004243,231.37820090004243,231.37820090004243,231.37820090004243,q,0.3248300999403,231.71251930017024,231.71251930017024,231.71251930017024,231.71251930017024,232.114746700041,232.114746700041,,,,,,,,,,,,,,,12312,sdfsdfs,2023-04-13_19h18.40.037,bandit task,2022.2.5,143.83046401651688,
,,,,,,,,49,0,49,0,,,,,,,,,,,,,,,,,,,,,,,,,,,,232.114746700041,232.114746700041,232.114746700041,232.114746700041,232.114746700041,232.114746700041,232.114746700041,232.114746700041,232.114746700041,p,0.05676220008172095,232.18418780015782,232.18418780015782,232.18418780015782,232.18418780015782,232.5861802001018,232.5861802001018,,,,,,,,,,,,,,,12312,sdfsdfs,2023-04-13_19h18.40.037,bandit task,2022.2.5,143.83046401651688,
,,,,,,,,50,0,50,0,,,,,,,,,,,,,,,,,,,,,,,,,,,,232.5861802001018,232.5861802001018,232.5861802001018,232.5861802001018,232.5861802001018,232.5861802001018,232.5861802001018,232.5861802001018,232.5861802001018,o,0.35319450008682907,232.9498496002052,232.9498496002052,232.9498496002052,232.9498496002052,233.35751540004276,233.35751540004276,,,,,,,,,,,,,,,12312,sdfsdfs,2023-04-13_19h18.40.037,bandit task,2022.2.5,143.83046401651688,
