utrials.thisRepN,utrials.thisTrialN,utrials.thisN,utrials.thisIndex,trials_2.thisRepN,trials_2.thisTrialN,trials_2.thisN,trials_2.thisIndex,trials.thisRepN,trials.thisTrialN,trials.thisN,trials.thisIndex,uIntrotext.started,uenter_resp.started,uenter_resp.keys,uenter_resp.rt,ukey_resp.started,Q.started,W.started,O.started,P.started,ukey_resp.keys,ukey_resp.rt,smly.started,text_3.started,smly.stopped,text_3.stopped,text.started,enterresp.started,enterresp.keys,enterresp.rt,Optionq.started,optionw.started,optiono.started,Optionp.started,key_resp.started,Ql.started,Wl.started,Ol.started,Pl.started,Optionq.stopped,optionw.stopped,optiono.stopped,Optionp.stopped,key_resp.stopped,Ql.stopped,Wl.stopped,Ol.stopped,Pl.stopped,key_resp.keys,sadl.started,smlyl.started,smlyl.stopped,text_2.started,sadl.stopped,text_2.stopped,Roll Number,Name,date,expName,psychopyVersion,frameRate,
,,,,,,,,,,,,19.705251300008968,19.705251300008968,space,2.2734003998339176,,,,,,,,,,,,,,,,,,,,,,,,,,,,,,,,,,,,,,,,,dfgfd,sdfsd,2023-04-12_21h14.49.222,bandit task,2022.2.5,144.21087076335118,
0,0,0,0,,,,,,,,,,,,,22.014424599939957,22.014424599939957,22.014424599939957,22.014424599939957,22.014424599939957,q,1.1172034998890013,23.148886600043625,23.148886600043625,,,,,,,,,,,,,,,,,,,,,,,,,,,,,,,,dfgfd,sdfsd,2023-04-12_21h14.49.222,bandit task,2022.2.5,144.21087076335118,
1,0,1,0,,,,,,,,,,,,,23.554657300002873,23.554657300002873,23.554657300002873,23.554657300002873,23.554657300002873,w,0.2556417998857796,23.8172867000103,23.8172867000103,24.220862100133672,24.220862100133672,,,,,,,,,,,,,,,,,,,,,,,,,,,,,,dfgfd,sdfsd,2023-04-12_21h14.49.222,bandit task,2022.2.5,144.21087076335118,
2,0,2,0,,,,,,,,,,,,,24.220862100133672,24.220862100133672,24.220862100133672,24.220862100133672,24.220862100133672,o,0.24924120004288852,24.478332299971953,24.478332299971953,24.881041600136086,24.881041600136086,,,,,,,,,,,,,,,,,,,,,,,,,,,,,,dfgfd,sdfsd,2023-04-12_21h14.49.222,bandit task,2022.2.5,144.21087076335118,
3,0,3,0,,,,,,,,,,,,,24.881041600136086,24.881041600136086,24.881041600136086,24.881041600136086,24.881041600136086,p,0.18734350008890033,25.082015099935234,25.082015099935234,25.48447549995035,25.48447549995035,,,,,,,,,,,,,,,,,,,,,,,,,,,,,,dfgfd,sdfsd,2023-04-12_21h14.49.222,bandit task,2022.2.5,144.21087076335118,
4,0,4,0,,,,,,,,,,,,,25.48447549995035,25.48447549995035,25.48447549995035,25.48447549995035,25.48447549995035,q,0.18267649970948696,25.679062300128862,25.679062300128862,26.082079000072554,26.082079000072554,,,,,,,,,,,,,,,,,,,,,,,,,,,,,,dfgfd,sdfsd,2023-04-12_21h14.49.222,bandit task,2022.2.5,144.21087076335118,
5,0,5,0,,,,,,,,,,,,,26.082079000072554,26.082079000072554,26.082079000072554,26.082079000072554,26.082079000072554,w,0.13102629990316927,26.219447399955243,26.219447399955243,26.623651599977165,26.623651599977165,,,,,,,,,,,,,,,,,,,,,,,,,,,,,,dfgfd,sdfsd,2023-04-12_21h14.49.222,bandit task,2022.2.5,144.21087076335118,
6,0,6,0,,,,,,,,,,,,,26.623651599977165,26.623651599977165,26.623651599977165,26.623651599977165,26.623651599977165,o,0.18950730003416538,26.82294000010006,26.82294000010006,27.2277224001009,27.2277224001009,,,,,,,,,,,,,,,,,,,,,,,,,,,,,,dfgfd,sdfsd,2023-04-12_21h14.49.222,bandit task,2022.2.5,144.21087076335118,
7,0,7,0,,,,,,,,,,,,,27.2277224001009,27.2277224001009,27.2277224001009,27.2277224001009,27.2277224001009,p,0.16468869987875223,27.400784200057387,27.400784200057387,27.803773500025272,27.803773500025272,,,,,,,,,,,,,,,,,,,,,,,,,,,,,,dfgfd,sdfsd,2023-04-12_21h14.49.222,bandit task,2022.2.5,144.21087076335118,
8,0,8,0,,,,,,,,,,,,,27.803773500025272,27.803773500025272,27.803773500025272,27.803773500025272,27.803773500025272,q,0.2325906998012215,28.046243299962953,28.046243299962953,28.450260299956426,28.450260299956426,,,,,,,,,,,,,,,,,,,,,,,,,,,,,,dfgfd,sdfsd,2023-04-12_21h14.49.222,bandit task,2022.2.5,144.21087076335118,
9,0,9,0,,,,,,,,,,,,,28.450260299956426,28.450260299956426,28.450260299956426,28.450260299956426,28.450260299956426,w,0.25672509986907244,28.713186900131404,28.713186900131404,29.116349700139835,29.116349700139835,,,,,,,,,,,,,,,,,,,,,,,,,,,,,,dfgfd,sdfsd,2023-04-12_21h14.49.222,bandit task,2022.2.5,144.21087076335118,
10,0,10,0,,,,,,,,,,,,,29.116349700139835,29.116349700139835,29.116349700139835,29.116349700139835,29.116349700139835,o,0.2506795998197049,29.372897299937904,29.372897299937904,29.776031000074,29.776031000074,,,,,,,,,,,,,,,,,,,,,,,,,,,,,,dfgfd,sdfsd,2023-04-12_21h14.49.222,bandit task,2022.2.5,144.21087076335118,
11,0,11,0,,,,,,,,,,,,,29.776031000074,29.776031000074,29.776031000074,29.776031000074,29.776031000074,p,0.2685155998915434,30.052812800044194,30.052812800044194,30.456725100055337,30.456725100055337,,,,,,,,,,,,,,,,,,,,,,,,,,,,,,dfgfd,sdfsd,2023-04-12_21h14.49.222,bandit task,2022.2.5,144.21087076335118,
12,0,12,0,,,,,,,,,,,,,30.456725100055337,30.456725100055337,30.456725100055337,30.456725100055337,30.456725100055337,q,0.23037949996069074,30.69822119991295,30.69822119991295,31.102857900084928,31.102857900084928,,,,,,,,,,,,,,,,,,,,,,,,,,,,,,dfgfd,sdfsd,2023-04-12_21h14.49.222,bandit task,2022.2.5,144.21087076335118,
13,0,13,0,,,,,,,,,,,,,31.102857900084928,31.102857900084928,31.102857900084928,31.102857900084928,31.102857900084928,w,0.2230857997201383,31.337559400126338,31.337559400126338,31.741509600076824,31.741509600076824,,,,,,,,,,,,,,,,,,,,,,,,,,,,,,dfgfd,sdfsd,2023-04-12_21h14.49.222,bandit task,2022.2.5,144.21087076335118,
14,0,14,0,,,,,,,,,,,,,31.741509600076824,31.741509600076824,31.741509600076824,31.741509600076824,31.741509600076824,o,0.1630001999437809,31.91420860006474,31.91420860006474,32.3179625000339,32.3179625000339,,,,,,,,,,,,,,,,,,,,,,,,,,,,,,dfgfd,sdfsd,2023-04-12_21h14.49.222,bandit task,2022.2.5,144.21087076335118,
15,0,15,0,,,,,,,,,,,,,32.3179625000339,32.3179625000339,32.3179625000339,32.3179625000339,32.3179625000339,p,0.22981379996053874,32.559587799943984,32.559587799943984,32.9635729000438,32.9635729000438,,,,,,,,,,,,,,,,,,,,,,,,,,,,,,dfgfd,sdfsd,2023-04-12_21h14.49.222,bandit task,2022.2.5,144.21087076335118,
16,0,16,0,,,,,,,,,,,,,32.9635729000438,32.9635729000438,32.9635729000438,32.9635729000438,32.9635729000438,q,0.2431721999309957,33.21324530011043,33.21324530011043,33.616497199982405,33.616497199982405,,,,,,,,,,,,,,,,,,,,,,,,,,,,,,dfgfd,sdfsd,2023-04-12_21h14.49.222,bandit task,2022.2.5,144.21087076335118,
17,0,17,0,,,,,,,,,,,,,33.616497199982405,33.616497199982405,33.616497199982405,33.616497199982405,33.616497199982405,w,0.21698119980283082,33.84454199997708,33.84454199997708,34.248478200053796,34.248478200053796,,,,,,,,,,,,,,,,,,,,,,,,,,,,,,dfgfd,sdfsd,2023-04-12_21h14.49.222,bandit task,2022.2.5,144.21087076335118,
18,0,18,0,,,,,,,,,,,,,34.248478200053796,34.248478200053796,34.248478200053796,34.248478200053796,34.248478200053796,o,0.25672009983099997,34.51156649994664,34.51156649994664,34.91525040008128,34.91525040008128,,,,,,,,,,,,,,,,,,,,,,,,,,,,,,dfgfd,sdfsd,2023-04-12_21h14.49.222,bandit task,2022.2.5,144.21087076335118,
19,0,19,0,,,,,,,,,,,,,34.91525040008128,34.91525040008128,34.91525040008128,34.91525040008128,34.91525040008128,p,0.2703871999401599,35.19150419998914,35.19150419998914,35.59573350008577,35.59573350008577,,,,,,,,,,,,,,,,,,,,,,,,,,,,,,dfgfd,sdfsd,2023-04-12_21h14.49.222,bandit task,2022.2.5,144.21087076335118,
20,0,20,0,,,,,,,,,,,,,35.59573350008577,35.59573350008577,35.59573350008577,35.59573350008577,35.59573350008577,q,0.2773684998974204,35.87905619991943,35.87905619991943,36.283193700015545,36.283193700015545,,,,,,,,,,,,,,,,,,,,,,,,,,,,,,dfgfd,sdfsd,2023-04-12_21h14.49.222,bandit task,2022.2.5,144.21087076335118,
21,0,21,0,,,,,,,,,,,,,36.283193700015545,36.283193700015545,36.283193700015545,36.283193700015545,36.283193700015545,w,0.19425949989818037,36.484789200127125,36.484789200127125,36.8872626000084,36.8872626000084,,,,,,,,,,,,,,,,,,,,,,,,,,,,,,dfgfd,sdfsd,2023-04-12_21h14.49.222,bandit task,2022.2.5,144.21087076335118,
22,0,22,0,,,,,,,,,,,,,36.8872626000084,36.8872626000084,36.8872626000084,36.8872626000084,36.8872626000084,o,0.20117040001787245,37.094691700069234,37.094691700069234,37.49815579992719,37.49815579992719,,,,,,,,,,,,,,,,,,,,,,,,,,,,,,dfgfd,sdfsd,2023-04-12_21h14.49.222,bandit task,2022.2.5,144.21087076335118,
23,0,23,0,,,,,,,,,,,,,37.49815579992719,37.49815579992719,37.49815579992719,37.49815579992719,37.49815579992719,p,0.16511339996941388,37.671307400101796,37.671307400101796,38.074679400073364,38.074679400073364,,,,,,,,,,,,,,,,,,,,,,,,,,,,,,dfgfd,sdfsd,2023-04-12_21h14.49.222,bandit task,2022.2.5,144.21087076335118,
24,0,24,0,,,,,,,,,,,,,38.074679400073364,38.074679400073364,38.074679400073364,38.074679400073364,38.074679400073364,q,0.16845769993960857,38.25370889995247,38.25370889995247,38.65823119995184,38.65823119995184,,,,,,,,,,,,,,,,,,,,,,,,,,,,,,dfgfd,sdfsd,2023-04-12_21h14.49.222,bandit task,2022.2.5,144.21087076335118,
25,0,25,0,,,,,,,,,,,,,38.65823119995184,38.65823119995184,38.65823119995184,38.65823119995184,38.65823119995184,w,0.17353589995764196,38.838217000011355,38.838217000011355,39.24183359998278,39.24183359998278,,,,,,,,,,,,,,,,,,,,,,,,,,,,,,dfgfd,sdfsd,2023-04-12_21h14.49.222,bandit task,2022.2.5,144.21087076335118,
26,0,26,0,,,,,,,,,,,,,39.24183359998278,39.24183359998278,39.24183359998278,39.24183359998278,39.24183359998278,o,0.14516699989326298,39.39330370002426,39.39330370002426,39.797031100140885,39.797031100140885,,,,,,,,,,,,,,,,,,,,,,,,,,,,,,dfgfd,sdfsd,2023-04-12_21h14.49.222,bandit task,2022.2.5,144.21087076335118,
27,0,27,0,,,,,,,,,,,,,39.797031100140885,39.797031100140885,39.797031100140885,39.797031100140885,39.797031100140885,p,0.20123919984325767,40.00479739997536,40.00479739997536,40.408103100024164,40.408103100024164,,,,,,,,,,,,,,,,,,,,,,,,,,,,,,dfgfd,sdfsd,2023-04-12_21h14.49.222,bandit task,2022.2.5,144.21087076335118,
28,0,28,0,,,,,,,,,,,,,40.408103100024164,40.408103100024164,40.408103100024164,40.408103100024164,40.408103100024164,o,0.1543965998571366,40.57339880010113,40.57339880010113,40.97768200002611,40.97768200002611,,,,,,,,,,,,,,,,,,,,,,,,,,,,,,dfgfd,sdfsd,2023-04-12_21h14.49.222,bandit task,2022.2.5,144.21087076335118,
29,0,29,0,,,,,,,,,,,,,40.97768200002611,40.97768200002611,40.97768200002611,40.97768200002611,40.97768200002611,o,0.14038899983279407,41.12839620001614,41.12839620001614,,,,,,,,,,,,,,,,,,,,,,,,,,,,,,,,dfgfd,sdfsd,2023-04-12_21h14.49.222,bandit task,2022.2.5,144.21087076335118,
30,0,30,0,,,,,,,,,,,,,41.53296450013295,41.53296450013295,41.53296450013295,41.53296450013295,41.53296450013295,o,0.1930238998029381,41.73316609999165,41.73316609999165,42.137535700108856,42.137535700108856,,,,,,,,,,,,,,,,,,,,,,,,,,,,,,dfgfd,sdfsd,2023-04-12_21h14.49.222,bandit task,2022.2.5,144.21087076335118,
31,0,31,0,,,,,,,,,,,,,42.137535700108856,42.137535700108856,42.137535700108856,42.137535700108856,42.137535700108856,o,0.2231797999702394,42.3717706000898,42.3717706000898,42.77603640011512,42.77603640011512,,,,,,,,,,,,,,,,,,,,,,,,,,,,,,dfgfd,sdfsd,2023-04-12_21h14.49.222,bandit task,2022.2.5,144.21087076335118,
32,0,32,0,,,,,,,,,,,,,42.77603640011512,42.77603640011512,42.77603640011512,42.77603640011512,42.77603640011512,o,0.18179409997537732,42.9687125000637,42.9687125000637,43.37320880009793,43.37320880009793,,,,,,,,,,,,,,,,,,,,,,,,,,,,,,dfgfd,sdfsd,2023-04-12_21h14.49.222,bandit task,2022.2.5,144.21087076335118,
33,0,33,0,,,,,,,,,,,,,43.37320880009793,43.37320880009793,43.37320880009793,43.37320880009793,43.37320880009793,p,0.1749042000155896,43.55839679995552,43.55839679995552,43.963499600067735,43.963499600067735,,,,,,,,,,,,,,,,,,,,,,,,,,,,,,dfgfd,sdfsd,2023-04-12_21h14.49.222,bandit task,2022.2.5,144.21087076335118,
34,0,34,0,,,,,,,,,,,,,43.963499600067735,43.963499600067735,43.963499600067735,43.963499600067735,43.963499600067735,p,0.20021270005963743,44.17189020011574,44.17189020011574,44.574697100091726,44.574697100091726,,,,,,,,,,,,,,,,,,,,,,,,,,,,,,dfgfd,sdfsd,2023-04-12_21h14.49.222,bandit task,2022.2.5,144.21087076335118,
35,0,35,0,,,,,,,,,,,,,44.574697100091726,44.574697100091726,44.574697100091726,44.574697100091726,44.574697100091726,p,0.20668609999120235,44.78904090006836,44.78904090006836,45.19302319991402,45.19302319991402,,,,,,,,,,,,,,,,,,,,,,,,,,,,,,dfgfd,sdfsd,2023-04-12_21h14.49.222,bandit task,2022.2.5,144.21087076335118,
36,0,36,0,,,,,,,,,,,,,45.19302319991402,45.19302319991402,45.19302319991402,45.19302319991402,45.19302319991402,p,0.18207139987498522,45.387428800109774,45.387428800109774,45.7903233000543,45.7903233000543,,,,,,,,,,,,,,,,,,,,,,,,,,,,,,dfgfd,sdfsd,2023-04-12_21h14.49.222,bandit task,2022.2.5,144.21087076335118,
37,0,37,0,,,,,,,,,,,,,45.7903233000543,45.7903233000543,45.7903233000543,45.7903233000543,45.7903233000543,p,0.1685689997393638,45.96885830000974,45.96885830000974,46.373223799979314,46.373223799979314,,,,,,,,,,,,,,,,,,,,,,,,,,,,,,dfgfd,sdfsd,2023-04-12_21h14.49.222,bandit task,2022.2.5,144.21087076335118,
38,0,38,0,,,,,,,,,,,,,46.373223799979314,46.373223799979314,46.373223799979314,46.373223799979314,46.373223799979314,q,0.18457729974761605,46.56626489991322,46.56626489991322,46.970680499915034,46.970680499915034,,,,,,,,,,,,,,,,,,,,,,,,,,,,,,dfgfd,sdfsd,2023-04-12_21h14.49.222,bandit task,2022.2.5,144.21087076335118,
39,0,39,0,,,,,,,,,,,,,46.970680499915034,46.970680499915034,46.970680499915034,46.970680499915034,46.970680499915034,q,0.1885490999557078,47.171278400113806,47.171278400113806,47.57278160005808,47.57278160005808,,,,,,,,,,,,,,,,,,,,,,,,,,,,,,dfgfd,sdfsd,2023-04-12_21h14.49.222,bandit task,2022.2.5,144.21087076335118,
,,,,,,,,,,,,,,,,,,,,,,,,,,,47.57278160005808,47.57278160005808,space,1.7244024998508394,,,,,,,,,,,,,,,,,,,,,,,,,,dfgfd,sdfsd,2023-04-12_21h14.49.222,bandit task,2022.2.5,144.21087076335118,
,,,,,,,,,,,,,,,,,,,,,,,,,,,,,,,49.31118720001541,49.31118720001541,49.31118720001541,49.31118720001541,49.31118720001541,49.31118720001541,49.31118720001541,49.31118720001541,49.31118720001541,50.30922030005604,50.30922030005604,50.30922030005604,50.30922030005604,50.30922030005604,50.30922030005604,50.30922030005604,50.30922030005604,50.30922030005604,None,50.30922030005604,50.30922030005604,50.30922030005604,50.30922030005604,,,,,,,,,
