utrials.thisRepN,utrials.thisTrialN,utrials.thisN,utrials.thisIndex,trials_2.thisRepN,trials_2.thisTrialN,trials_2.thisN,trials_2.thisIndex,uIntrotext.started,uenter_resp.started,uenter_resp.keys,uenter_resp.rt,ukey_resp.started,Q.started,W.started,O.started,P.started,ukey_resp.keys,ukey_resp.rt,smly.started,text_3.started,smly.stopped,text_3.stopped,text_8.started,key_resp_5.started,key_resp_5.keys,key_resp_5.rt,Roll Number,Name,date,expName,psychopyVersion,frameRate,
,,,,,,,,12.204257000004873,12.204257000004873,space,9.627387299988186,,,,,,,,,,,,,,,,,,2023-04-12_11h21.35.969,bandit task,2022.2.5,59.58662374766248,
0,0,0,0,,,,,,,,,21.893871899985243,21.893871899985243,21.893871899985243,21.893871899985243,21.893871899985243,q,0.6836072000151034,22.60840319999261,22.60840319999261,,,,,,,,,2023-04-12_11h21.35.969,bandit task,2022.2.5,59.58662374766248,
1,0,1,0,,,,,,,,,23.01069359999383,23.01069359999383,23.01069359999383,23.01069359999383,23.01069359999383,q,0.16520310001214966,23.192469600006007,23.192469600006007,23.59417160000885,23.59417160000885,,,,,,,2023-04-12_11h21.35.969,bandit task,2022.2.5,59.58662374766248,
2,0,2,0,,,,,,,,,23.59417160000885,23.59417160000885,23.59417160000885,23.59417160000885,23.59417160000885,q,0.4777343000168912,24.091671300004236,24.091671300004236,24.493083000008482,24.493083000008482,,,,,,,2023-04-12_11h21.35.969,bandit task,2022.2.5,59.58662374766248,
3,0,3,0,,,,,,,,,24.493083000008482,24.493083000008482,24.493083000008482,24.493083000008482,24.493083000008482,q,0.015729200007626787,24.52548380001099,24.52548380001099,24.926644499995746,24.926644499995746,,,,,,,2023-04-12_11h21.35.969,bandit task,2022.2.5,59.58662374766248,
4,0,4,0,,,,,,,,,24.926644499995746,24.926644499995746,24.926644499995746,24.926644499995746,24.926644499995746,q,0.20249940000940114,25.158580799994525,25.158580799994525,25.559942399995634,25.559942399995634,,,,,,,2023-04-12_11h21.35.969,bandit task,2022.2.5,59.58662374766248,
5,0,5,0,,,,,,,,,25.559942399995634,25.559942399995634,25.559942399995634,25.559942399995634,25.559942399995634,q,0.0815856000117492,25.657837200007634,25.657837200007634,26.074998099997174,26.074998099997174,,,,,,,2023-04-12_11h21.35.969,bandit task,2022.2.5,59.58662374766248,
6,0,6,0,,,,,,,,,26.074998099997174,26.074998099997174,26.074998099997174,26.074998099997174,26.074998099997174,q,0.026054899994051084,26.139689200004796,26.139689200004796,,,,,,,,,2023-04-12_11h21.35.969,bandit task,2022.2.5,59.58662374766248,
7,0,7,0,,,,,,,,,26.541796600009548,26.541796600009548,26.541796600009548,26.541796600009548,26.541796600009548,q,0.15943480000714771,26.725425200012978,26.725425200012978,27.12642849999247,27.12642849999247,,,,,,,2023-04-12_11h21.35.969,bandit task,2022.2.5,59.58662374766248,
8,0,8,0,,,,,,,,,27.12642849999247,27.12642849999247,27.12642849999247,27.12642849999247,27.12642849999247,q,0.012954900012118742,27.172610000008717,27.172610000008717,,,,,,,,,2023-04-12_11h21.35.969,bandit task,2022.2.5,59.58662374766248,
9,0,9,0,,,,,,,,,27.574539199995343,27.574539199995343,27.574539199995343,27.574539199995343,27.574539199995343,q,0.0005463999987114221,27.60668070000247,27.60668070000247,28.00939640001161,28.00939640001161,,,,,,,2023-04-12_11h21.35.969,bandit task,2022.2.5,59.58662374766248,
10,0,10,0,,,,,,,,,28.00939640001161,28.00939640001161,28.00939640001161,28.00939640001161,28.00939640001161,q,0.1934715999814216,28.22348799998872,28.22348799998872,28.624070099991513,28.624070099991513,,,,,,,2023-04-12_11h21.35.969,bandit task,2022.2.5,59.58662374766248,
11,0,11,0,,,,,,,,,28.624070099991513,28.624070099991513,28.624070099991513,28.624070099991513,28.624070099991513,q,0.04025570000521839,28.68941389999236,28.68941389999236,29.09127149998676,29.09127149998676,,,,,,,2023-04-12_11h21.35.969,bandit task,2022.2.5,59.58662374766248,
12,0,12,0,,,,,,,,,29.09127149998676,29.09127149998676,29.09127149998676,29.09127149998676,29.09127149998676,q,0.021562499983701855,29.139542499993695,29.139542499993695,29.541910100000678,29.541910100000678,,,,,,,2023-04-12_11h21.35.969,bandit task,2022.2.5,59.58662374766248,
13,0,13,0,,,,,,,,,29.541910100000678,29.541910100000678,29.541910100000678,29.541910100000678,29.541910100000678,q,0.0107105000060983,29.588117500010412,29.588117500010412,,,,,,,,,2023-04-12_11h21.35.969,bandit task,2022.2.5,59.58662374766248,
14,0,14,0,,,,,,,,,29.99104530000477,29.99104530000477,29.99104530000477,29.99104530000477,29.99104530000477,q,0.21596049997606315,30.222085099987453,30.222085099987453,30.623789200006286,30.623789200006286,,,,,,,2023-04-12_11h21.35.969,bandit task,2022.2.5,59.58662374766248,
15,0,15,0,,,,,,,,,30.623789200006286,30.623789200006286,30.623789200006286,30.623789200006286,30.623789200006286,q,0.0070291000010911375,30.655702099989867,30.655702099989867,31.057330699986778,31.057330699986778,,,,,,,2023-04-12_11h21.35.969,bandit task,2022.2.5,59.58662374766248,
16,0,16,0,,,,,,,,,31.057330699986778,31.057330699986778,31.057330699986778,31.057330699986778,31.057330699986778,q,0.0019129000138491392,31.08870970000862,31.08870970000862,31.4905538999883,31.4905538999883,,,,,,,2023-04-12_11h21.35.969,bandit task,2022.2.5,59.58662374766248,
17,0,17,0,,,,,,,,,31.4905538999883,31.4905538999883,31.4905538999883,31.4905538999883,31.4905538999883,q,0.0009922999888658524,31.520375399995828,31.520375399995828,,,,,,,,,2023-04-12_11h21.35.969,bandit task,2022.2.5,59.58662374766248,
18,0,18,0,,,,,,,,,31.923180899990257,31.923180899990257,31.923180899990257,31.923180899990257,31.923180899990257,q,0.17387289999169298,32.121092099987436,32.121092099987436,32.52351950001321,32.52351950001321,,,,,,,2023-04-12_11h21.35.969,bandit task,2022.2.5,59.58662374766248,
19,0,19,0,,,,,,,,,32.52351950001321,32.52351950001321,32.52351950001321,32.52351950001321,32.52351950001321,q,0.1875069999950938,32.73759340000106,32.73759340000106,33.139537200011546,33.139537200011546,,,,,,,2023-04-12_11h21.35.969,bandit task,2022.2.5,59.58662374766248,
20,0,20,0,,,,,,,,,33.139537200011546,33.139537200011546,33.139537200011546,33.139537200011546,33.139537200011546,q,0.0129167000122834,33.18597990000853,33.18597990000853,,,,,,,,,2023-04-12_11h21.35.969,bandit task,2022.2.5,59.58662374766248,
21,0,21,0,,,,,,,,,33.58938029999263,33.58938029999263,33.58938029999263,33.58938029999263,33.58938029999263,q,0.02802869997685775,33.63688269999693,33.63688269999693,34.03878450000775,34.03878450000775,,,,,,,2023-04-12_11h21.35.969,bandit task,2022.2.5,59.58662374766248,
22,0,22,0,,,,,,,,,34.03878450000775,34.03878450000775,34.03878450000775,34.03878450000775,34.03878450000775,q,0.11346009999397211,34.18575880001299,34.18575880001299,,,,,,,,,2023-04-12_11h21.35.969,bandit task,2022.2.5,59.58662374766248,
23,0,23,0,,,,,,,,,34.58852190000471,34.58852190000471,34.58852190000471,34.58852190000471,34.58852190000471,q,0.21342980000190437,34.819675300008385,34.819675300008385,35.22182179999072,35.22182179999072,,,,,,,2023-04-12_11h21.35.969,bandit task,2022.2.5,59.58662374766248,
24,0,24,0,,,,,,,,,35.22182179999072,35.22182179999072,35.22182179999072,35.22182179999072,35.22182179999072,q,0.028086000005714595,35.269570900010876,35.269570900010876,35.67113679999602,35.67113679999602,,,,,,,2023-04-12_11h21.35.969,bandit task,2022.2.5,59.58662374766248,
25,0,25,0,,,,,,,,,35.67113679999602,35.67113679999602,35.67113679999602,35.67113679999602,35.67113679999602,q,0.014912100014043972,35.70241560001159,35.70241560001159,36.10390180000104,36.10390180000104,,,,,,,2023-04-12_11h21.35.969,bandit task,2022.2.5,59.58662374766248,
26,0,26,0,,,,,,,,,36.10390180000104,36.10390180000104,36.10390180000104,36.10390180000104,36.10390180000104,q,0.11616549998871051,36.237353600008646,36.237353600008646,,,,,,,,,2023-04-12_11h21.35.969,bandit task,2022.2.5,59.58662374766248,
27,0,27,0,,,,,,,,,36.654061400011415,36.654061400011415,36.654061400011415,36.654061400011415,36.654061400011415,q,0.03605509997578338,36.71889160000137,36.71889160000137,37.12124889998813,37.12124889998813,,,,,,,2023-04-12_11h21.35.969,bandit task,2022.2.5,59.58662374766248,
28,0,28,0,,,,,,,,,37.12124889998813,37.12124889998813,37.12124889998813,37.12124889998813,37.12124889998813,q,0.09032859999570064,37.25034199998481,37.25034199998481,,,,,,,,,2023-04-12_11h21.35.969,bandit task,2022.2.5,59.58662374766248,
29,0,29,0,,,,,,,,,37.65432969998801,37.65432969998801,37.65432969998801,37.65432969998801,37.65432969998801,q,0.641154099983396,38.31823800000711,38.31823800000711,38.7195090999885,38.7195090999885,,,,,,,2023-04-12_11h21.35.969,bandit task,2022.2.5,59.58662374766248,
30,0,30,0,,,,,,,,,38.7195090999885,38.7195090999885,38.7195090999885,38.7195090999885,38.7195090999885,q,0.22033809998538345,38.968406400003005,38.968406400003005,39.36920710001141,39.36920710001141,,,,,,,2023-04-12_11h21.35.969,bandit task,2022.2.5,59.58662374766248,
31,0,31,0,,,,,,,,,39.36920710001141,39.36920710001141,39.36920710001141,39.36920710001141,39.36920710001141,q,0.16535220001242124,39.55052129999967,39.55052129999967,39.951952000003075,39.951952000003075,,,,,,,2023-04-12_11h21.35.969,bandit task,2022.2.5,59.58662374766248,
32,0,32,0,,,,,,,,,39.951952000003075,39.951952000003075,39.951952000003075,39.951952000003075,39.951952000003075,q,0.05400099998223595,40.03386500000488,40.03386500000488,40.43542039999738,40.43542039999738,,,,,,,2023-04-12_11h21.35.969,bandit task,2022.2.5,59.58662374766248,
33,0,33,0,,,,,,,,,40.43542039999738,40.43542039999738,40.43542039999738,40.43542039999738,40.43542039999738,q,0.0946653000137303,40.55010240001138,40.55010240001138,40.95120919999317,40.95120919999317,,,,,,,2023-04-12_11h21.35.969,bandit task,2022.2.5,59.58662374766248,
34,0,34,0,,,,,,,,,40.95120919999317,40.95120919999317,40.95120919999317,40.95120919999317,40.95120919999317,q,0.1325381000060588,41.10064709998551,41.10064709998551,41.50113560000318,41.50113560000318,,,,,,,2023-04-12_11h21.35.969,bandit task,2022.2.5,59.58662374766248,
35,0,35,0,,,,,,,,,41.50113560000318,41.50113560000318,41.50113560000318,41.50113560000318,41.50113560000318,q,0.16325720000895672,41.6827326999919,41.6827326999919,42.084172200004105,42.084172200004105,,,,,,,2023-04-12_11h21.35.969,bandit task,2022.2.5,59.58662374766248,
36,0,36,0,,,,,,,,,42.084172200004105,42.084172200004105,42.084172200004105,42.084172200004105,42.084172200004105,q,0.09722280001733452,42.19926819999819,42.19926819999819,42.60031400001026,42.60031400001026,,,,,,,2023-04-12_11h21.35.969,bandit task,2022.2.5,59.58662374766248,
37,0,37,0,,,,,,,,,42.60031400001026,42.60031400001026,42.60031400001026,42.60031400001026,42.60031400001026,q,0.10177259999909438,42.73244100000011,42.73244100000011,43.13468940000166,43.13468940000166,,,,,,,2023-04-12_11h21.35.969,bandit task,2022.2.5,59.58662374766248,
38,0,38,0,,,,,,,,,43.13468940000166,43.13468940000166,43.13468940000166,43.13468940000166,43.13468940000166,q,0.0885372000047937,43.24866519999341,43.24866519999341,43.6500190999941,43.6500190999941,,,,,,,2023-04-12_11h21.35.969,bandit task,2022.2.5,59.58662374766248,
39,0,39,0,,,,,,,,,43.6500190999941,43.6500190999941,43.6500190999941,43.6500190999941,43.6500190999941,q,0.020728400006191805,43.71417769999243,43.71417769999243,,,,,,,,,2023-04-12_11h21.35.969,bandit task,2022.2.5,59.58662374766248,
40,0,40,0,,,,,,,,,44.1163438000076,44.1163438000076,44.1163438000076,44.1163438000076,44.1163438000076,q,0.002428899984806776,44.14842750001117,44.14842750001117,44.549686999991536,44.549686999991536,,,,,,,2023-04-12_11h21.35.969,bandit task,2022.2.5,59.58662374766248,
41,0,41,0,,,,,,,,,44.549686999991536,44.549686999991536,44.549686999991536,44.549686999991536,44.549686999991536,q,0.1637633999926038,44.73118239999167,44.73118239999167,45.132167900010245,45.132167900010245,,,,,,,2023-04-12_11h21.35.969,bandit task,2022.2.5,59.58662374766248,
42,0,42,0,,,,,,,,,45.132167900010245,45.132167900010245,45.132167900010245,45.132167900010245,45.132167900010245,q,0.1738813999982085,45.33140709999134,45.33140709999134,45.73295249999501,45.73295249999501,,,,,,,2023-04-12_11h21.35.969,bandit task,2022.2.5,59.58662374766248,
43,0,43,0,,,,,,,,,45.73295249999501,45.73295249999501,45.73295249999501,45.73295249999501,45.73295249999501,q,0.27574359998106956,46.03082389998599,46.03082389998599,46.432528800010914,46.432528800010914,,,,,,,2023-04-12_11h21.35.969,bandit task,2022.2.5,59.58662374766248,
44,0,44,0,,,,,,,,,46.432528800010914,46.432528800010914,46.432528800010914,46.432528800010914,46.432528800010914,q,0.07613879998098128,46.530695299996296,46.530695299996296,46.93190160000813,46.93190160000813,,,,,,,2023-04-12_11h21.35.969,bandit task,2022.2.5,59.58662374766248,
45,0,45,0,,,,,,,,,46.93190160000813,46.93190160000813,46.93190160000813,46.93190160000813,46.93190160000813,q,0.1409136000147555,47.096733199985465,47.096733199985465,47.49888309999369,47.49888309999369,,,,,,,2023-04-12_11h21.35.969,bandit task,2022.2.5,59.58662374766248,
46,0,46,0,,,,,,,,,47.49888309999369,47.49888309999369,47.49888309999369,47.49888309999369,47.49888309999369,q,0.17556500001228414,47.71202360000461,47.71202360000461,,,,,,,,,2023-04-12_11h21.35.969,bandit task,2022.2.5,59.58662374766248,
47,0,47,0,,,,,,,,,48.11540929999319,48.11540929999319,48.11540929999319,48.11540929999319,48.11540929999319,q,0.10812000001897104,48.24912540000514,48.24912540000514,,,,,,,,,2023-04-12_11h21.35.969,bandit task,2022.2.5,59.58662374766248,
48,0,48,0,,,,,,,,,48.66445310000563,48.66445310000563,48.66445310000563,48.66445310000563,48.66445310000563,q,0.11955390000366606,48.828035799990175,48.828035799990175,,,,,,,,,2023-04-12_11h21.35.969,bandit task,2022.2.5,59.58662374766248,
49,0,49,0,,,,,,,,,49.23009599998477,49.23009599998477,49.23009599998477,49.23009599998477,49.23009599998477,q,0.26703119999729097,49.527747399988584,49.527747399988584,,,,,,,,,2023-04-12_11h21.35.969,bandit task,2022.2.5,59.58662374766248,
50,0,50,0,,,,,,,,,49.93016580000403,49.93016580000403,49.93016580000403,49.93016580000403,49.93016580000403,q,0.7952158999978565,50.745274499990046,50.745274499990046,51.14620680001099,51.14620680001099,,,,,,,2023-04-12_11h21.35.969,bandit task,2022.2.5,59.58662374766248,
51,0,51,0,,,,,,,,,51.14620680001099,51.14620680001099,51.14620680001099,51.14620680001099,51.14620680001099,q,0.30192169998190366,51.477774800005136,51.477774800005136,51.879220200004056,51.879220200004056,,,,,,,2023-04-12_11h21.35.969,bandit task,2022.2.5,59.58662374766248,
52,0,52,0,,,,,,,,,51.879220200004056,51.879220200004056,51.879220200004056,51.879220200004056,51.879220200004056,q,0.11257640001713298,52.010768000007374,52.010768000007374,52.41301329998532,52.41301329998532,,,,,,,2023-04-12_11h21.35.969,bandit task,2022.2.5,59.58662374766248,
53,0,53,0,,,,,,,,,52.41301329998532,52.41301329998532,52.41301329998532,52.41301329998532,52.41301329998532,q,0.6065761999925599,53.04362529999344,53.04362529999344,53.44507789998897,53.44507789998897,,,,,,,2023-04-12_11h21.35.969,bandit task,2022.2.5,59.58662374766248,
54,0,54,0,,,,,,,,,53.44507789998897,53.44507789998897,53.44507789998897,53.44507789998897,53.44507789998897,q,1.601017699984368,55.07585759999347,55.07585759999347,55.47705990000395,55.47705990000395,,,,,,,2023-04-12_11h21.35.969,bandit task,2022.2.5,59.58662374766248,
55,0,55,0,,,,,,,,,55.47705990000395,55.47705990000395,55.47705990000395,55.47705990000395,55.47705990000395,q,1.0683297000068706,56.575250299996696,56.575250299996696,56.977991899999324,56.977991899999324,,,,,,,2023-04-12_11h21.35.969,bandit task,2022.2.5,59.58662374766248,
56,0,56,0,,,,,,,,,56.977991899999324,56.977991899999324,56.977991899999324,56.977991899999324,56.977991899999324,q,1.6705518999951892,58.674128099984955,58.674128099984955,59.07648980000522,59.07648980000522,,,,,,,2023-04-12_11h21.35.969,bandit task,2022.2.5,59.58662374766248,
57,0,57,0,,,,,,,,,59.07648980000522,59.07648980000522,59.07648980000522,59.07648980000522,59.07648980000522,q,0.46550269998260774,59.55717640000512,59.55717640000512,59.958639999997104,59.958639999997104,,,,,,,2023-04-12_11h21.35.969,bandit task,2022.2.5,59.58662374766248,
58,0,58,0,,,,,,,,,59.958639999997104,59.958639999997104,59.958639999997104,59.958639999997104,59.958639999997104,q,0.1086178999976255,60.09034419999807,60.09034419999807,60.49122749999515,60.49122749999515,,,,,,,2023-04-12_11h21.35.969,bandit task,2022.2.5,59.58662374766248,
59,0,59,0,,,,,,,,,60.49122749999515,60.49122749999515,60.49122749999515,60.49122749999515,60.49122749999515,q,0.03366629997617565,60.572080199985066,60.572080199985066,,,,,,,,,2023-04-12_11h21.35.969,bandit task,2022.2.5,59.58662374766248,
60,0,60,0,,,,,,,,,60.9752135000017,60.9752135000017,60.9752135000017,60.9752135000017,60.9752135000017,q,0.10696879998431541,61.1064558000071,61.1064558000071,61.50892079999903,61.50892079999903,,,,,,,2023-04-12_11h21.35.969,bandit task,2022.2.5,59.58662374766248,
61,0,61,0,,,,,,,,,61.50892079999903,61.50892079999903,61.50892079999903,61.50892079999903,61.50892079999903,q,0.19639549998100847,61.72257390001323,61.72257390001323,62.123870000010356,62.123870000010356,,,,,,,2023-04-12_11h21.35.969,bandit task,2022.2.5,59.58662374766248,
62,0,62,0,,,,,,,,,62.123870000010356,62.123870000010356,62.123870000010356,62.123870000010356,62.123870000010356,q,0.18156370002543554,62.32213749998482,62.32213749998482,62.72483540000394,62.72483540000394,,,,,,,2023-04-12_11h21.35.969,bandit task,2022.2.5,59.58662374766248,
63,0,63,0,,,,,,,,,62.72483540000394,62.72483540000394,62.72483540000394,62.72483540000394,62.72483540000394,q,0.18676119999145158,62.95428860001266,62.95428860001266,,,,,,,,,2023-04-12_11h21.35.969,bandit task,2022.2.5,59.58662374766248,
64,0,64,0,,,,,,,,,63.35692009999184,63.35692009999184,63.35692009999184,63.35692009999184,63.35692009999184,q,0.22596969999722205,63.60472289999598,63.60472289999598,64.00615000000107,64.00615000000107,,,,,,,2023-04-12_11h21.35.969,bandit task,2022.2.5,59.58662374766248,
65,0,65,0,,,,,,,,,64.00615000000107,64.00615000000107,64.00615000000107,64.00615000000107,64.00615000000107,q,0.16424670000560582,64.18823239998892,64.18823239998892,64.58907210000325,64.58907210000325,,,,,,,2023-04-12_11h21.35.969,bandit task,2022.2.5,59.58662374766248,
66,0,66,0,,,,,,,,,64.58907210000325,64.58907210000325,64.58907210000325,64.58907210000325,64.58907210000325,q,0.19805669999914244,64.80544689999078,64.80544689999078,65.20696280000266,65.20696280000266,,,,,,,2023-04-12_11h21.35.969,bandit task,2022.2.5,59.58662374766248,
67,0,67,0,,,,,,,,,65.20696280000266,65.20696280000266,65.20696280000266,65.20696280000266,65.20696280000266,q,0.049240299995290115,65.2719761999906,65.2719761999906,,,,,,,,,2023-04-12_11h21.35.969,bandit task,2022.2.5,59.58662374766248,
68,0,68,0,,,,,,,,,65.68993399999454,65.68993399999454,65.68993399999454,65.68993399999454,65.68993399999454,q,0.04884139998466708,65.76992520000204,65.76992520000204,,,,,,,,,2023-04-12_11h21.35.969,bandit task,2022.2.5,59.58662374766248,
69,0,69,0,,,,,,,,,66.17173050000565,66.17173050000565,66.17173050000565,66.17173050000565,66.17173050000565,q,0.1358331000083126,66.33706419999362,66.33706419999362,66.73809890000848,66.73809890000848,,,,,,,2023-04-12_11h21.35.969,bandit task,2022.2.5,59.58662374766248,
70,0,70,0,,,,,,,,,66.73809890000848,66.73809890000848,66.73809890000848,66.73809890000848,66.73809890000848,q,0.1250655000039842,66.88649579999037,66.88649579999037,67.2887100999942,67.2887100999942,,,,,,,2023-04-12_11h21.35.969,bandit task,2022.2.5,59.58662374766248,
71,0,71,0,,,,,,,,,67.2887100999942,67.2887100999942,67.2887100999942,67.2887100999942,67.2887100999942,q,0.2360286999901291,67.55297600000631,67.55297600000631,67.95411630001036,67.95411630001036,,,,,,,2023-04-12_11h21.35.969,bandit task,2022.2.5,59.58662374766248,
72,0,72,0,,,,,,,,,67.95411630001036,67.95411630001036,67.95411630001036,67.95411630001036,67.95411630001036,q,0.6494714000145905,68.6189638999931,68.6189638999931,69.02158349999809,69.02158349999809,,,,,,,2023-04-12_11h21.35.969,bandit task,2022.2.5,59.58662374766248,
73,0,73,0,,,,,,,,,69.02158349999809,69.02158349999809,69.02158349999809,69.02158349999809,69.02158349999809,q,3.412478000012925,72.45195779998903,72.45195779998903,,,,,,,,,2023-04-12_11h21.35.969,bandit task,2022.2.5,59.58662374766248,
74,0,74,0,,,,,,,,,72.86889969999902,72.86889969999902,72.86889969999902,72.86889969999902,72.86889969999902,q,0.03317429998423904,72.91692119999789,72.91692119999789,73.31781300000148,73.31781300000148,,,,,,,2023-04-12_11h21.35.969,bandit task,2022.2.5,59.58662374766248,
75,0,75,0,,,,,,,,,73.31781300000148,73.31781300000148,73.31781300000148,73.31781300000148,73.31781300000148,q,0.23818819998996332,73.58331429999089,73.58331429999089,73.9857680000132,73.9857680000132,,,,,,,2023-04-12_11h21.35.969,bandit task,2022.2.5,59.58662374766248,
76,0,76,0,,,,,,,,,73.9857680000132,73.9857680000132,73.9857680000132,73.9857680000132,73.9857680000132,q,0.19652319999295287,74.19991150000715,74.19991150000715,74.60125259999768,74.60125259999768,,,,,,,2023-04-12_11h21.35.969,bandit task,2022.2.5,59.58662374766248,
77,0,77,0,,,,,,,,,74.60125259999768,74.60125259999768,74.60125259999768,74.60125259999768,74.60125259999768,q,0.14294160000281408,74.76593019999564,74.76593019999564,75.1667477999872,75.1667477999872,,,,,,,2023-04-12_11h21.35.969,bandit task,2022.2.5,59.58662374766248,
78,0,78,0,,,,,,,,,75.1667477999872,75.1667477999872,75.1667477999872,75.1667477999872,75.1667477999872,q,0.017284700006712228,75.1990048000007,75.1990048000007,75.60054330001003,75.60054330001003,,,,,,,2023-04-12_11h21.35.969,bandit task,2022.2.5,59.58662374766248,
79,0,79,0,,,,,,,,,75.60054330001003,75.60054330001003,75.60054330001003,75.60054330001003,75.60054330001003,q,0.20937759999651462,75.83236120000947,75.83236120000947,76.23282870001276,76.23282870001276,,,,,,,2023-04-12_11h21.35.969,bandit task,2022.2.5,59.58662374766248,
80,0,80,0,,,,,,,,,76.23282870001276,76.23282870001276,76.23282870001276,76.23282870001276,76.23282870001276,q,0.28938210001797415,76.5483513000072,76.5483513000072,76.94979720000993,76.94979720000993,,,,,,,2023-04-12_11h21.35.969,bandit task,2022.2.5,59.58662374766248,
81,0,81,0,,,,,,,,,76.94979720000993,76.94979720000993,76.94979720000993,76.94979720000993,76.94979720000993,q,0.2593629000184592,77.23142719999305,77.23142719999305,77.63294569999562,77.63294569999562,,,,,,,2023-04-12_11h21.35.969,bandit task,2022.2.5,59.58662374766248,
82,0,82,0,,,,,,,,,77.63294569999562,77.63294569999562,77.63294569999562,77.63294569999562,77.63294569999562,q,0.24989549999008887,77.91335300001083,77.91335300001083,,,,,,,,,2023-04-12_11h21.35.969,bandit task,2022.2.5,59.58662374766248,
83,0,83,0,,,,,,,,,78.315649199998,78.315649199998,78.315649199998,78.315649199998,78.315649199998,q,0.1583855000208132,78.49725949999993,78.49725949999993,78.89903840000625,78.89903840000625,,,,,,,2023-04-12_11h21.35.969,bandit task,2022.2.5,59.58662374766248,
84,0,84,0,,,,,,,,,78.89903840000625,78.89903840000625,78.89903840000625,78.89903840000625,78.89903840000625,q,0.17568590000155382,79.11266189999878,79.11266189999878,,,,,,,,,2023-04-12_11h21.35.969,bandit task,2022.2.5,59.58662374766248,
85,0,85,0,,,,,,,,,79.51528409999446,79.51528409999446,79.51528409999446,79.51528409999446,79.51528409999446,q,0.1054936999862548,79.64663490001112,79.64663490001112,80.04787479998777,80.04787479998777,,,,,,,2023-04-12_11h21.35.969,bandit task,2022.2.5,59.58662374766248,
86,0,86,0,,,,,,,,,80.04787479998777,80.04787479998777,80.04787479998777,80.04787479998777,80.04787479998777,q,0.10295319999568164,80.17987650001305,80.17987650001305,80.58097819998511,80.58097819998511,,,,,,,2023-04-12_11h21.35.969,bandit task,2022.2.5,59.58662374766248,
87,0,87,0,,,,,,,,,80.58097819998511,80.58097819998511,80.58097819998511,80.58097819998511,80.58097819998511,q,0.21237339999061078,80.82829820000916,80.82829820000916,,,,,,,,,2023-04-12_11h21.35.969,bandit task,2022.2.5,59.58662374766248,
88,0,88,0,,,,,,,,,81.23196880001342,81.23196880001342,81.23196880001342,81.23196880001342,81.23196880001342,q,0.2221136000007391,81.47915430000285,81.47915430000285,81.88097679999191,81.88097679999191,,,,,,,2023-04-12_11h21.35.969,bandit task,2022.2.5,59.58662374766248,
89,0,89,0,,,,,,,,,81.88097679999191,81.88097679999191,81.88097679999191,81.88097679999191,81.88097679999191,q,0.19967040000483394,82.11123929999303,82.11123929999303,,,,,,,,,2023-04-12_11h21.35.969,bandit task,2022.2.5,59.58662374766248,
90,0,90,0,,,,,,,,,82.51425159999053,82.51425159999053,82.51425159999053,82.51425159999053,82.51425159999053,q,0.2573612999985926,82.79564900000696,82.79564900000696,83.19685730000492,83.19685730000492,,,,,,,2023-04-12_11h21.35.969,bandit task,2022.2.5,59.58662374766248,
91,0,91,0,,,,,,,,,83.19685730000492,83.19685730000492,83.19685730000492,83.19685730000492,83.19685730000492,q,0.27133100002538413,83.49459690001095,83.49459690001095,83.90867460001027,83.90867460001027,,,,,,,2023-04-12_11h21.35.969,bandit task,2022.2.5,59.58662374766248,
92,0,92,0,,,,,,,,,83.90867460001027,83.90867460001027,83.90867460001027,83.90867460001027,83.90867460001027,q,0.357689800002845,84.29444749999675,84.29444749999675,84.69632149999961,84.69632149999961,,,,,,,2023-04-12_11h21.35.969,bandit task,2022.2.5,59.58662374766248,
93,0,93,0,,,,,,,,,84.69632149999961,84.69632149999961,84.69632149999961,84.69632149999961,84.69632149999961,q,0.2257161999878008,84.94470930000534,84.94470930000534,85.34503060000134,85.34503060000134,,,,,,,2023-04-12_11h21.35.969,bandit task,2022.2.5,59.58662374766248,
94,0,94,0,,,,,,,,,85.34503060000134,85.34503060000134,85.34503060000134,85.34503060000134,85.34503060000134,q,0.761941000004299,86.14219199999934,86.14219199999934,,,,,,,,,2023-04-12_11h21.35.969,bandit task,2022.2.5,59.58662374766248,
95,0,95,0,,,,,,,,,86.5449549999903,86.5449549999903,86.5449549999903,86.5449549999903,86.5449549999903,q,0.23954809998394921,86.80962169999839,86.80962169999839,87.21111870001187,87.21111870001187,,,,,,,2023-04-12_11h21.35.969,bandit task,2022.2.5,59.58662374766248,
96,0,96,0,,,,,,,,,87.21111870001187,87.21111870001187,87.21111870001187,87.21111870001187,87.21111870001187,q,0.24092019998352043,87.47646989999339,87.47646989999339,87.87707749998663,87.87707749998663,,,,,,,2023-04-12_11h21.35.969,bandit task,2022.2.5,59.58662374766248,
97,0,97,0,,,,,,,,,87.87707749998663,87.87707749998663,87.87707749998663,87.87707749998663,87.87707749998663,q,0.2650832000072114,88.15882760001114,88.15882760001114,88.56073870000546,88.56073870000546,,,,,,,2023-04-12_11h21.35.969,bandit task,2022.2.5,59.58662374766248,
98,0,98,0,,,,,,,,,88.56073870000546,88.56073870000546,88.56073870000546,88.56073870000546,88.56073870000546,q,0.24375870000221767,88.82570330001181,88.82570330001181,89.2269593999954,89.2269593999954,,,,,,,2023-04-12_11h21.35.969,bandit task,2022.2.5,59.58662374766248,
99,0,99,0,0,0,0,0,,,,,89.2269593999954,89.2269593999954,89.2269593999954,89.2269593999954,89.2269593999954,q,0.1294429000117816,89.37566089999746,89.37566089999746,89.77523679999285,89.77523679999285,89.77523679999285,89.77523679999285,space,2.472421899990877,,,2023-04-12_11h21.35.969,bandit task,2022.2.5,59.58662374766248,
99,0,99,0,,,,,,,,,,,,,,,,,,,,,,,,,,2023-04-12_11h21.35.969,bandit task,2022.2.5,59.58662374766248,
100,0,100,0,,,,,,,,,92.29065790001187,92.29065790001187,92.29065790001187,92.29065790001187,92.29065790001187,q,0.5406468999863137,92.87229609998758,92.87229609998758,,,,,,,,,2023-04-12_11h21.35.969,bandit task,2022.2.5,59.58662374766248,
101,0,101,0,,,,,,,,,93.27453600001172,93.27453600001172,93.27453600001172,93.27453600001172,93.27453600001172,q,0.2580858999863267,93.55678019998595,93.55678019998595,93.95805919999839,93.95805919999839,,,,,,,2023-04-12_11h21.35.969,bandit task,2022.2.5,59.58662374766248,
102,0,102,0,,,,,,,,,93.95805919999839,93.95805919999839,93.95805919999839,93.95805919999839,93.95805919999839,q,0.13166010001441464,94.10604690000764,94.10604690000764,94.50741449999623,94.50741449999623,,,,,,,2023-04-12_11h21.35.969,bandit task,2022.2.5,59.58662374766248,
103,0,103,0,,,,,,,,,94.50741449999623,94.50741449999623,94.50741449999623,94.50741449999623,94.50741449999623,q,0.11805469999671914,94.67177240000456,94.67177240000456,,,,,,,,,2023-04-12_11h21.35.969,bandit task,2022.2.5,59.58662374766248,
104,0,104,0,,,,,,,,,95.0738374000066,95.0738374000066,95.0738374000066,95.0738374000066,95.0738374000066,q,0.12864879998960532,95.22199069999624,95.22199069999624,95.62312649999512,95.62312649999512,,,,,,,2023-04-12_11h21.35.969,bandit task,2022.2.5,59.58662374766248,
105,0,105,0,,,,,,,,,95.62312649999512,95.62312649999512,95.62312649999512,95.62312649999512,95.62312649999512,q,0.1048509000102058,95.75505750000593,95.75505750000593,96.15662019999581,96.15662019999581,,,,,,,2023-04-12_11h21.35.969,bandit task,2022.2.5,59.58662374766248,
106,0,106,0,,,,,,,,,96.15662019999581,96.15662019999581,96.15662019999581,96.15662019999581,96.15662019999581,q,0.03485510000609793,96.2217559000128,96.2217559000128,96.62326659998507,96.62326659998507,,,,,,,2023-04-12_11h21.35.969,bandit task,2022.2.5,59.58662374766248,
107,0,107,0,,,,,,,,,96.62326659998507,96.62326659998507,96.62326659998507,96.62326659998507,96.62326659998507,q,0.11888299998827279,96.77157139999326,96.77157139999326,97.17306169998483,97.17306169998483,,,,,,,2023-04-12_11h21.35.969,bandit task,2022.2.5,59.58662374766248,
108,0,108,0,,,,,,,,,97.17306169998483,97.17306169998483,97.17306169998483,97.17306169998483,97.17306169998483,q,0.5647797000128776,97.75568860000931,97.75568860000931,,,,,,,,,2023-04-12_11h21.35.969,bandit task,2022.2.5,59.58662374766248,
109,0,109,0,,,,,,,,,98.17243109998526,98.17243109998526,98.17243109998526,98.17243109998526,98.17243109998526,q,0.19564309998531826,98.38692550000269,98.38692550000269,98.78837570000906,98.78837570000906,,,,,,,2023-04-12_11h21.35.969,bandit task,2022.2.5,59.58662374766248,
110,0,110,0,,,,,,,,,98.78837570000906,98.78837570000906,98.78837570000906,98.78837570000906,98.78837570000906,q,0.19393359997775406,99.00361069999053,99.00361069999053,99.40500959998462,99.40500959998462,,,,,,,2023-04-12_11h21.35.969,bandit task,2022.2.5,59.58662374766248,
111,0,111,0,,,,,,,,,99.40500959998462,99.40500959998462,99.40500959998462,99.40500959998462,99.40500959998462,q,0.1832562999916263,99.60305370000424,99.60305370000424,100.0046857999987,100.0046857999987,,,,,,,2023-04-12_11h21.35.969,bandit task,2022.2.5,59.58662374766248,
112,0,112,0,,,,,,,,,100.0046857999987,100.0046857999987,100.0046857999987,100.0046857999987,100.0046857999987,q,0.19735319999745116,100.21982100000605,100.21982100000605,100.62223269999959,100.62223269999959,,,,,,,2023-04-12_11h21.35.969,bandit task,2022.2.5,59.58662374766248,
113,0,113,0,,,,,,,,,100.62223269999959,100.62223269999959,100.62223269999959,100.62223269999959,100.62223269999959,q,0.08795889999601059,100.75182689999929,100.75182689999929,,,,,,,,,2023-04-12_11h21.35.969,bandit task,2022.2.5,59.58662374766248,
114,0,114,0,,,,,,,,,101.15437750000274,101.15437750000274,101.15437750000274,101.15437750000274,101.15437750000274,q,0.20459119998849928,101.3858457999886,101.3858457999886,101.80236209998839,101.80236209998839,,,,,,,2023-04-12_11h21.35.969,bandit task,2022.2.5,59.58662374766248,
115,0,115,0,,,,,,,,,101.80236209998839,101.80236209998839,101.80236209998839,101.80236209998839,101.80236209998839,q,0.22774410000420175,102.05236840000725,102.05236840000725,102.45347079998464,102.45347079998464,,,,,,,2023-04-12_11h21.35.969,bandit task,2022.2.5,59.58662374766248,
116,0,116,0,,,,,,,,,102.45347079998464,102.45347079998464,102.45347079998464,102.45347079998464,102.45347079998464,q,0.16983920001075603,102.6515769000107,102.6515769000107,103.05336759999045,103.05336759999045,,,,,,,2023-04-12_11h21.35.969,bandit task,2022.2.5,59.58662374766248,
117,0,117,0,,,,,,,,,103.05336759999045,103.05336759999045,103.05336759999045,103.05336759999045,103.05336759999045,q,0.1338441999978386,103.22338549999404,103.22338549999404,,,,,,,,,2023-04-12_11h21.35.969,bandit task,2022.2.5,59.58662374766248,
118,0,118,0,,,,,,,,,103.63613749999786,103.63613749999786,103.63613749999786,103.63613749999786,103.63613749999786,q,0.10690670000622049,103.76768129999982,103.76768129999982,104.16986200000974,104.16986200000974,,,,,,,2023-04-12_11h21.35.969,bandit task,2022.2.5,59.58662374766248,
119,0,119,0,,,,,,,,,104.16986200000974,104.16986200000974,104.16986200000974,104.16986200000974,104.16986200000974,q,0.13884109997889027,104.33405090001179,104.33405090001179,104.73539119999623,104.73539119999623,,,,,,,2023-04-12_11h21.35.969,bandit task,2022.2.5,59.58662374766248,
120,0,120,0,,,,,,,,,104.73539119999623,104.73539119999623,104.73539119999623,104.73539119999623,104.73539119999623,q,0.5719324999954551,105.33380260001286,105.33380260001286,105.73532979999436,105.73532979999436,,,,,,,2023-04-12_11h21.35.969,bandit task,2022.2.5,59.58662374766248,
121,0,121,0,,,,,,,,,105.73532979999436,105.73532979999436,105.73532979999436,105.73532979999436,105.73532979999436,q,3.5097961999999825,109.2650250000006,109.2650250000006,109.6673798999982,109.6673798999982,,,,,,,2023-04-12_11h21.35.969,bandit task,2022.2.5,59.58662374766248,
122,0,122,0,,,,,,,,,109.6673798999982,109.6673798999982,109.6673798999982,109.6673798999982,109.6673798999982,q,0.6091035999706946,110.29797559999861,110.29797559999861,110.69867260000319,110.69867260000319,,,,,,,2023-04-12_11h21.35.969,bandit task,2022.2.5,59.58662374766248,
123,0,123,0,,,,,,,,,110.69867260000319,110.69867260000319,110.69867260000319,110.69867260000319,110.69867260000319,q,0.2399747000017669,110.97966939999606,110.97966939999606,,,,,,,,,2023-04-12_11h21.35.969,bandit task,2022.2.5,59.58662374766248,
124,0,124,0,,,,,,,,,111.38293230001,111.38293230001,111.38293230001,111.38293230001,111.38293230001,q,0.17270389999612235,111.5806106000091,111.5806106000091,111.98211049998645,111.98211049998645,,,,,,,2023-04-12_11h21.35.969,bandit task,2022.2.5,59.58662374766248,
125,0,125,0,,,,,,,,,111.98211049998645,111.98211049998645,111.98211049998645,111.98211049998645,111.98211049998645,q,0.15888709999853745,112.16344329999993,112.16344329999993,112.56497179999133,112.56497179999133,,,,,,,2023-04-12_11h21.35.969,bandit task,2022.2.5,59.58662374766248,
126,0,126,0,,,,,,,,,112.56497179999133,112.56497179999133,112.56497179999133,112.56497179999133,112.56497179999133,q,0.20342669999809004,112.79717490001349,112.79717490001349,113.19735020000371,113.19735020000371,,,,,,,2023-04-12_11h21.35.969,bandit task,2022.2.5,59.58662374766248,
127,0,127,0,,,,,,,,,113.19735020000371,113.19735020000371,113.19735020000371,113.19735020000371,113.19735020000371,q,0.1462761999864597,113.36360159999458,113.36360159999458,113.76403240000946,113.76403240000946,,,,,,,2023-04-12_11h21.35.969,bandit task,2022.2.5,59.58662374766248,
128,0,128,0,,,,,,,,,113.76403240000946,113.76403240000946,113.76403240000946,113.76403240000946,113.76403240000946,q,0.2159731000137981,113.99583540001186,113.99583540001186,114.39786840000306,114.39786840000306,,,,,,,2023-04-12_11h21.35.969,bandit task,2022.2.5,59.58662374766248,
129,0,129,0,,,,,,,,,114.39786840000306,114.39786840000306,114.39786840000306,114.39786840000306,114.39786840000306,q,0.10436029999982566,114.52948820000165,114.52948820000165,114.93044860000373,114.93044860000373,,,,,,,2023-04-12_11h21.35.969,bandit task,2022.2.5,59.58662374766248,
,,,,,,,,,,,,114.93044860000373,114.93044860000373,114.93044860000373,114.93044860000373,114.93044860000373,q,0.21419650001917034,115.1617707000114,115.1617707000114,,,,,,,,,,,,,
