utrials.thisRepN,utrials.thisTrialN,utrials.thisN,utrials.thisIndex,trials_2.thisRepN,trials_2.thisTrialN,trials_2.thisN,trials_2.thisIndex,uIntrotext.started,uenter_resp.started,uenter_resp.keys,uenter_resp.rt,ukey_resp.started,Q.started,W.started,O.started,P.started,ukey_resp.keys,ukey_resp.rt,smly.started,text_3.started,smly.stopped,text_3.stopped,text_8.started,key_resp_5.started,key_resp_5.keys,key_resp_5.rt,Roll Number,Name,date,expName,psychopyVersion,frameRate,
,,,,,,,,8.837539599975571,8.837539599975571,space,0.32525150003493764,,,,,,,,,,,,,,,,,,2023-04-12_11h23.44.608,bandit task,2022.2.5,60.052125239633554,
0,0,0,0,,,,,,,,,9.220653299998958,9.220653299998958,9.220653299998958,9.220653299998958,9.220653299998958,p,0.3066432000196073,9.568978800001787,9.568978800001787,,,,,,,,,2023-04-12_11h23.44.608,bandit task,2022.2.5,60.052125239633554,
1,0,1,0,,,,,,,,,9.97147339998628,9.97147339998628,9.97147339998628,9.97147339998628,9.97147339998628,p,0.02590870004496537,10.018822299985914,10.018822299985914,10.420302399987122,10.420302399987122,,,,,,,2023-04-12_11h23.44.608,bandit task,2022.2.5,60.052125239633554,
2,0,2,0,,,,,,,,,10.420302399987122,10.420302399987122,10.420302399987122,10.420302399987122,10.420302399987122,p,0.06975710002006963,10.518670899997232,10.518670899997232,10.920527899987064,10.920527899987064,,,,,,,2023-04-12_11h23.44.608,bandit task,2022.2.5,60.052125239633554,
3,0,3,0,,,,,,,,,10.920527899987064,10.920527899987064,10.920527899987064,10.920527899987064,10.920527899987064,p,0.2109078000066802,11.167452599998796,11.167452599998796,,,,,,,,,2023-04-12_11h23.44.608,bandit task,2022.2.5,60.052125239633554,
4,0,4,0,,,,,,,,,11.569657199986978,11.569657199986978,11.569657199986978,11.569657199986978,11.569657199986978,p,0.04144830003497191,11.63481759998831,11.63481759998831,12.036180700000841,12.036180700000841,,,,,,,2023-04-12_11h23.44.608,bandit task,2022.2.5,60.052125239633554,
5,0,5,0,,,,,,,,,12.036180700000841,12.036180700000841,12.036180700000841,12.036180700000841,12.036180700000841,p,0.20118400000501424,12.26859369999147,12.26859369999147,,,,,,,,,2023-04-12_11h23.44.608,bandit task,2022.2.5,60.052125239633554,
6,0,6,0,,,,,,,,,12.685586799983867,12.685586799983867,12.685586799983867,12.685586799983867,12.685586799983867,p,0.06887410004856065,12.784271599986823,12.784271599986823,13.186554199986858,13.186554199986858,,,,,,,2023-04-12_11h23.44.608,bandit task,2022.2.5,60.052125239633554,
7,0,7,0,,,,,,,,,13.186554199986858,13.186554199986858,13.186554199986858,13.186554199986858,13.186554199986858,p,0.09895440001855604,13.300570399995195,13.300570399995195,13.70307529999991,13.70307529999991,,,,,,,2023-04-12_11h23.44.608,bandit task,2022.2.5,60.052125239633554,
8,0,8,0,,,,,,,,,13.70307529999991,13.70307529999991,13.70307529999991,13.70307529999991,13.70307529999991,p,0.02590900001814589,13.766194199997699,13.766194199997699,,,,,,,,,2023-04-12_11h23.44.608,bandit task,2022.2.5,60.052125239633554,
9,0,9,0,,,,,,,,,14.169004399998812,14.169004399998812,14.169004399998812,14.169004399998812,14.169004399998812,p,0.048544300021603703,14.233667799999239,14.233667799999239,14.635292199993273,14.635292199993273,,,,,,,2023-04-12_11h23.44.608,bandit task,2022.2.5,60.052125239633554,
10,0,10,0,,,,,,,,,14.635292199993273,14.635292199993273,14.635292199993273,14.635292199993273,14.635292199993273,p,0.11292340004001744,14.767178599984618,14.767178599984618,15.168237199977739,15.168237199977739,,,,,,,2023-04-12_11h23.44.608,bandit task,2022.2.5,60.052125239633554,
11,0,11,0,,,,,,,,,15.168237199977739,15.168237199977739,15.168237199977739,15.168237199977739,15.168237199977739,p,0.1346113000472542,15.332928099989658,15.332928099989658,15.734624399978202,15.734624399978202,,,,,,,2023-04-12_11h23.44.608,bandit task,2022.2.5,60.052125239633554,
12,0,12,0,,,,,,,,,15.734624399978202,15.734624399978202,15.734624399978202,15.734624399978202,15.734624399978202,p,0.17125560002750717,15.932843999995384,15.932843999995384,16.333928599982755,16.333928599982755,,,,,,,2023-04-12_11h23.44.608,bandit task,2022.2.5,60.052125239633554,
13,0,13,0,,,,,,,,,16.333928599982755,16.333928599982755,16.333928599982755,16.333928599982755,16.333928599982755,p,0.09546560002490878,16.464435299974866,16.464435299974866,,,,,,,,,2023-04-12_11h23.44.608,bandit task,2022.2.5,60.052125239633554,
14,0,14,0,,,,,,,,,16.867482599976938,16.867482599976938,16.867482599976938,16.867482599976938,16.867482599976938,p,0.040359600010560825,16.93232839999837,16.93232839999837,17.334704099979717,17.334704099979717,,,,,,,2023-04-12_11h23.44.608,bandit task,2022.2.5,60.052125239633554,
15,0,15,0,,,,,,,,,17.334704099979717,17.334704099979717,17.334704099979717,17.334704099979717,17.334704099979717,p,0.11531880003167316,17.48068029998103,17.48068029998103,,,,,,,,,2023-04-12_11h23.44.608,bandit task,2022.2.5,60.052125239633554,
16,0,16,0,,,,,,,,,17.882711499987636,17.882711499987636,17.882711499987636,17.882711499987636,17.882711499987636,p,0.11886040001991205,18.032012599986047,18.032012599986047,18.433392899984028,18.433392899984028,,,,,,,2023-04-12_11h23.44.608,bandit task,2022.2.5,60.052125239633554,
17,0,17,0,,,,,,,,,18.433392899984028,18.433392899984028,18.433392899984028,18.433392899984028,18.433392899984028,p,0.15591120001045056,18.614515699999174,18.614515699999174,19.015696799993748,19.015696799993748,,,,,,,2023-04-12_11h23.44.608,bandit task,2022.2.5,60.052125239633554,
18,0,18,0,,,,,,,,,19.015696799993748,19.015696799993748,19.015696799993748,19.015696799993748,19.015696799993748,p,0.1085750000202097,19.163169699982973,19.163169699982973,,,,,,,,,2023-04-12_11h23.44.608,bandit task,2022.2.5,60.052125239633554,
19,0,19,0,,,,,,,,,19.56577279997873,19.56577279997873,19.56577279997873,19.56577279997873,19.56577279997873,p,0.09262540002237074,19.681131899997126,19.681131899997126,20.083577699988382,20.083577699988382,,,,,,,2023-04-12_11h23.44.608,bandit task,2022.2.5,60.052125239633554,
20,0,20,0,,,,,,,,,20.083577699988382,20.083577699988382,20.083577699988382,20.083577699988382,20.083577699988382,p,0.09066170002915896,20.197241399990162,20.197241399990162,20.599355499987723,20.599355499987723,,,,,,,2023-04-12_11h23.44.608,bandit task,2022.2.5,60.052125239633554,
21,0,21,0,,,,,,,,,20.599355499987723,20.599355499987723,20.599355499987723,20.599355499987723,20.599355499987723,p,0.15073400002438575,20.779992499999935,20.779992499999935,21.182754699984798,21.182754699984798,,,,,,,2023-04-12_11h23.44.608,bandit task,2022.2.5,60.052125239633554,
22,0,22,0,,,,,,,,,21.182754699984798,21.182754699984798,21.182754699984798,21.182754699984798,21.182754699984798,p,0.12443290004739538,21.330149099987466,21.330149099987466,21.731924599997,21.731924599997,,,,,,,2023-04-12_11h23.44.608,bandit task,2022.2.5,60.052125239633554,
23,0,23,0,,,,,,,,,21.731924599997,21.731924599997,21.731924599997,21.731924599997,21.731924599997,p,0.13765000001876615,21.896300399996107,21.896300399996107,22.297523899993394,22.297523899993394,,,,,,,2023-04-12_11h23.44.608,bandit task,2022.2.5,60.052125239633554,
24,0,24,0,,,,,,,,,22.297523899993394,22.297523899993394,22.297523899993394,22.297523899993394,22.297523899993394,p,0.19489530002465472,22.513109699997585,22.513109699997585,22.913410099979956,22.913410099979956,,,,,,,2023-04-12_11h23.44.608,bandit task,2022.2.5,60.052125239633554,
25,0,25,0,,,,,,,,,22.913410099979956,22.913410099979956,22.913410099979956,22.913410099979956,22.913410099979956,p,0.1807394000061322,23.11219339998206,23.11219339998206,23.51395490000141,23.51395490000141,,,,,,,2023-04-12_11h23.44.608,bandit task,2022.2.5,60.052125239633554,
26,0,26,0,,,,,,,,,23.51395490000141,23.51395490000141,23.51395490000141,23.51395490000141,23.51395490000141,p,0.08487240003887564,23.628896999987774,23.628896999987774,24.02985799999442,24.02985799999442,,,,,,,2023-04-12_11h23.44.608,bandit task,2022.2.5,60.052125239633554,
27,0,27,0,,,,,,,,,24.02985799999442,24.02985799999442,24.02985799999442,24.02985799999442,24.02985799999442,p,0.13774700002977625,24.195160499977646,24.195160499977646,24.5959871999803,24.5959871999803,,,,,,,2023-04-12_11h23.44.608,bandit task,2022.2.5,60.052125239633554,
28,0,28,0,,,,,,,,,24.5959871999803,24.5959871999803,24.5959871999803,24.5959871999803,24.5959871999803,p,0.1890148000093177,24.826592699973844,24.826592699973844,,,,,,,,,2023-04-12_11h23.44.608,bandit task,2022.2.5,60.052125239633554,
29,0,29,0,,,,,,,,,25.22941489997902,25.22941489997902,25.22941489997902,25.22941489997902,25.22941489997902,p,0.14626890001818538,25.41015859998879,25.41015859998879,,,,,,,,,2023-04-12_11h23.44.608,bandit task,2022.2.5,60.052125239633554,
30,0,30,0,,,,,,,,,25.812579699995695,25.812579699995695,25.812579699995695,25.812579699995695,25.812579699995695,p,0.11340730002848431,25.944421799998963,25.944421799998963,26.345082299987553,26.345082299987553,,,,,,,2023-04-12_11h23.44.608,bandit task,2022.2.5,60.052125239633554,
31,0,31,0,,,,,,,,,26.345082299987553,26.345082299987553,26.345082299987553,26.345082299987553,26.345082299987553,p,0.170150600024499,26.54392509997706,26.54392509997706,26.945054999989225,26.945054999989225,,,,,,,2023-04-12_11h23.44.608,bandit task,2022.2.5,60.052125239633554,
32,0,32,0,,,,,,,,,26.945054999989225,26.945054999989225,26.945054999989225,26.945054999989225,26.945054999989225,p,0.021767000027466565,26.99370859999908,26.99370859999908,27.395815899973968,27.395815899973968,,,,,,,2023-04-12_11h23.44.608,bandit task,2022.2.5,60.052125239633554,
33,0,33,0,,,,,,,,,27.395815899973968,27.395815899973968,27.395815899973968,27.395815899973968,27.395815899973968,p,0.6031982000276912,28.027082599990536,28.027082599990536,28.42737859999761,28.42737859999761,,,,,,,2023-04-12_11h23.44.608,bandit task,2022.2.5,60.052125239633554,
34,0,34,0,,,,,,,,,28.42737859999761,28.42737859999761,28.42737859999761,28.42737859999761,28.42737859999761,p,0.17724110002745874,28.625976499984972,28.625976499984972,29.02877069998067,29.02877069998067,,,,,,,2023-04-12_11h23.44.608,bandit task,2022.2.5,60.052125239633554,
35,0,35,0,,,,,,,,,29.02877069998067,29.02877069998067,29.02877069998067,29.02877069998067,29.02877069998067,p,0.1850789000163786,29.242453499988187,29.242453499988187,29.644045900000492,29.644045900000492,,,,,,,2023-04-12_11h23.44.608,bandit task,2022.2.5,60.052125239633554,
36,0,36,0,,,,,,,,,29.644045900000492,29.644045900000492,29.644045900000492,29.644045900000492,29.644045900000492,p,0.10291590003180318,29.776146899996093,29.776146899996093,30.17714889999479,30.17714889999479,,,,,,,2023-04-12_11h23.44.608,bandit task,2022.2.5,60.052125239633554,
37,0,37,0,,,,,,,,,30.17714889999479,30.17714889999479,30.17714889999479,30.17714889999479,30.17714889999479,p,0.6574929000344127,30.85856949997833,30.85856949997833,31.260084299981827,31.260084299981827,,,,,,,2023-04-12_11h23.44.608,bandit task,2022.2.5,60.052125239633554,
38,0,38,0,,,,,,,,,31.260084299981827,31.260084299981827,31.260084299981827,31.260084299981827,31.260084299981827,p,0.17827250002301298,31.45959749998292,31.45959749998292,31.86015329998918,31.86015329998918,,,,,,,2023-04-12_11h23.44.608,bandit task,2022.2.5,60.052125239633554,
39,0,39,0,,,,,,,,,31.86015329998918,31.86015329998918,31.86015329998918,31.86015329998918,31.86015329998918,p,0.1628195000521373,32.05649930000072,32.05649930000072,,,,,,,,,2023-04-12_11h23.44.608,bandit task,2022.2.5,60.052125239633554,
40,0,40,0,,,,,,,,,32.45894369998132,32.45894369998132,32.45894369998132,32.45894369998132,32.45894369998132,p,0.409028300025966,32.891135499987286,32.891135499987286,33.291595599992434,33.291595599992434,,,,,,,2023-04-12_11h23.44.608,bandit task,2022.2.5,60.052125239633554,
41,0,41,0,,,,,,,,,33.291595599992434,33.291595599992434,33.291595599992434,33.291595599992434,33.291595599992434,p,0.1650647000351455,33.4735327999806,33.4735327999806,33.87523599999258,33.87523599999258,,,,,,,2023-04-12_11h23.44.608,bandit task,2022.2.5,60.052125239633554,
42,0,42,0,,,,,,,,,33.87523599999258,33.87523599999258,33.87523599999258,33.87523599999258,33.87523599999258,p,0.11221790002309717,34.00669099998777,34.00669099998777,34.408062899979996,34.408062899979996,,,,,,,2023-04-12_11h23.44.608,bandit task,2022.2.5,60.052125239633554,
43,0,43,0,,,,,,,,,34.408062899979996,34.408062899979996,34.408062899979996,34.408062899979996,34.408062899979996,p,0.13599120001890697,34.573506199987605,34.573506199987605,34.97554709998076,34.97554709998076,,,,,,,2023-04-12_11h23.44.608,bandit task,2022.2.5,60.052125239633554,
44,0,44,0,,,,,,,,,34.97554709998076,34.97554709998076,34.97554709998076,34.97554709998076,34.97554709998076,p,0.13081270002294332,35.12298789998749,35.12298789998749,35.524320600001374,35.524320600001374,,,,,,,2023-04-12_11h23.44.608,bandit task,2022.2.5,60.052125239633554,
45,0,45,0,,,,,,,,,35.524320600001374,35.524320600001374,35.524320600001374,35.524320600001374,35.524320600001374,p,0.3737596000137273,35.922378099989146,35.922378099989146,36.32558350000181,36.32558350000181,,,,,,,2023-04-12_11h23.44.608,bandit task,2022.2.5,60.052125239633554,
46,0,46,0,,,,,,,,,36.32558350000181,36.32558350000181,36.32558350000181,36.32558350000181,36.32558350000181,p,0.16824470003484748,36.52313499999582,36.52313499999582,36.92430559999775,36.92430559999775,,,,,,,2023-04-12_11h23.44.608,bandit task,2022.2.5,60.052125239633554,
47,0,47,0,,,,,,,,,36.92430559999775,36.92430559999775,36.92430559999775,36.92430559999775,36.92430559999775,p,0.18278220004867762,37.122249899985036,37.122249899985036,37.52495589997852,37.52495589997852,,,,,,,2023-04-12_11h23.44.608,bandit task,2022.2.5,60.052125239633554,
48,0,48,0,,,,,,,,,37.52495589997852,37.52495589997852,37.52495589997852,37.52495589997852,37.52495589997852,p,0.1902859000256285,37.73876690000179,37.73876690000179,38.13992449999205,38.13992449999205,,,,,,,2023-04-12_11h23.44.608,bandit task,2022.2.5,60.052125239633554,
49,0,49,0,,,,,,,,,38.13992449999205,38.13992449999205,38.13992449999205,38.13992449999205,38.13992449999205,p,0.5122410000185482,38.671167499996955,38.671167499996955,39.071954099985305,39.071954099985305,,,,,,,2023-04-12_11h23.44.608,bandit task,2022.2.5,60.052125239633554,
50,0,50,0,,,,,,,,,39.071954099985305,39.071954099985305,39.071954099985305,39.071954099985305,39.071954099985305,p,0.3030457000131719,39.41956779998145,39.41956779998145,,,,,,,,,2023-04-12_11h23.44.608,bandit task,2022.2.5,60.052125239633554,
51,0,51,0,,,,,,,,,39.82167999999365,39.82167999999365,39.82167999999365,39.82167999999365,39.82167999999365,p,0.17377240004134364,40.020481299987296,40.020481299987296,40.42154969999683,40.42154969999683,,,,,,,2023-04-12_11h23.44.608,bandit task,2022.2.5,60.052125239633554,
52,0,52,0,,,,,,,,,40.42154969999683,40.42154969999683,40.42154969999683,40.42154969999683,40.42154969999683,p,0.23030090003157966,40.66993289999664,40.66993289999664,41.07213129999582,41.07213129999582,,,,,,,2023-04-12_11h23.44.608,bandit task,2022.2.5,60.052125239633554,
53,0,53,0,,,,,,,,,41.07213129999582,41.07213129999582,41.07213129999582,41.07213129999582,41.07213129999582,p,0.19413870002608746,41.286224799987394,41.286224799987394,41.68834579997929,41.68834579997929,,,,,,,2023-04-12_11h23.44.608,bandit task,2022.2.5,60.052125239633554,
54,0,54,0,,,,,,,,,41.68834579997929,41.68834579997929,41.68834579997929,41.68834579997929,41.68834579997929,p,0.1841812000493519,41.90311179999844,41.90311179999844,42.3052328999911,42.3052328999911,,,,,,,2023-04-12_11h23.44.608,bandit task,2022.2.5,60.052125239633554,
55,0,55,0,,,,,,,,,42.3052328999911,42.3052328999911,42.3052328999911,42.3052328999911,42.3052328999911,p,0.11237380004604347,42.451562299975194,42.451562299975194,,,,,,,,,2023-04-12_11h23.44.608,bandit task,2022.2.5,60.052125239633554,
56,0,56,0,,,,,,,,,42.85345699999016,42.85345699999016,42.85345699999016,42.85345699999016,42.85345699999016,p,0.1071881000243593,42.98586639997666,42.98586639997666,43.386673499975586,43.386673499975586,,,,,,,2023-04-12_11h23.44.608,bandit task,2022.2.5,60.052125239633554,
57,0,57,0,,,,,,,,,43.386673499975586,43.386673499975586,43.386673499975586,43.386673499975586,43.386673499975586,p,0.199399800010724,43.601682399981655,43.601682399981655,44.01908790000016,44.01908790000016,,,,,,,2023-04-12_11h23.44.608,bandit task,2022.2.5,60.052125239633554,
58,0,58,0,,,,,,,,,44.01908790000016,44.01908790000016,44.01908790000016,44.01908790000016,44.01908790000016,p,0.1694681000080891,44.2197535999876,44.2197535999876,,,,,,,,,2023-04-12_11h23.44.608,bandit task,2022.2.5,60.052125239633554,
59,0,59,0,,,,,,,,,44.63610740000149,44.63610740000149,44.63610740000149,44.63610740000149,44.63610740000149,p,0.13176570003270172,44.80036100000143,44.80036100000143,,,,,,,,,2023-04-12_11h23.44.608,bandit task,2022.2.5,60.052125239633554,
60,0,60,0,,,,,,,,,45.20317549997708,45.20317549997708,45.20317549997708,45.20317549997708,45.20317549997708,p,0.18899720002082177,45.43300739998813,45.43300739998813,,,,,,,,,2023-04-12_11h23.44.608,bandit task,2022.2.5,60.052125239633554,
61,0,61,0,,,,,,,,,45.83683089999249,45.83683089999249,45.83683089999249,45.83683089999249,45.83683089999249,p,0.13067370004137047,45.99965519999387,45.99965519999387,,,,,,,,,2023-04-12_11h23.44.608,bandit task,2022.2.5,60.052125239633554,
62,0,62,0,,,,,,,,,46.40251689997967,46.40251689997967,46.40251689997967,46.40251689997967,46.40251689997967,p,0.3029390000156127,46.73343619998195,46.73343619998195,47.13487779998104,47.13487779998104,,,,,,,2023-04-12_11h23.44.608,bandit task,2022.2.5,60.052125239633554,
63,0,63,0,,,,,,,,,47.13487779998104,47.13487779998104,47.13487779998104,47.13487779998104,47.13487779998104,p,0.17776830002549104,47.348654599976726,47.348654599976726,,,,,,,,,2023-04-12_11h23.44.608,bandit task,2022.2.5,60.052125239633554,
64,0,64,0,,,,,,,,,47.75131229998078,47.75131229998078,47.75131229998078,47.75131229998078,47.75131229998078,p,0.1897616000205744,47.981765099975746,47.981765099975746,,,,,,,,,2023-04-12_11h23.44.608,bandit task,2022.2.5,60.052125239633554,
65,0,65,0,,,,,,,,,48.38497039998765,48.38497039998765,48.38497039998765,48.38497039998765,48.38497039998765,p,0.15256440002121963,48.56606839998858,48.56606839998858,48.967728999996325,48.967728999996325,,,,,,,2023-04-12_11h23.44.608,bandit task,2022.2.5,60.052125239633554,
66,0,66,0,,,,,,,,,48.967728999996325,48.967728999996325,48.967728999996325,48.967728999996325,48.967728999996325,p,0.17961960003594868,49.16747079999186,49.16747079999186,,,,,,,,,2023-04-12_11h23.44.608,bandit task,2022.2.5,60.052125239633554,
67,0,67,0,,,,,,,,,49.58355149999261,49.58355149999261,49.58355149999261,49.58355149999261,49.58355149999261,p,0.19995730003574863,49.814146599994274,49.814146599994274,,,,,,,,,2023-04-12_11h23.44.608,bandit task,2022.2.5,60.052125239633554,
68,0,68,0,,,,,,,,,50.21677479997743,50.21677479997743,50.21677479997743,50.21677479997743,50.21677479997743,p,0.5173256000271067,50.7801943999948,50.7801943999948,,,,,,,,,2023-04-12_11h23.44.608,bandit task,2022.2.5,60.052125239633554,
69,0,69,0,,,,,,,,,51.183159899985185,51.183159899985185,51.183159899985185,51.183159899985185,51.183159899985185,p,0.12094630001229234,51.346908199979225,51.346908199979225,,,,,,,,,2023-04-12_11h23.44.608,bandit task,2022.2.5,60.052125239633554,
70,0,70,0,,,,,,,,,51.74958389997482,51.74958389997482,51.74958389997482,51.74958389997482,51.74958389997482,p,0.13360360002843663,51.91340049999417,51.91340049999417,,,,,,,,,2023-04-12_11h23.44.608,bandit task,2022.2.5,60.052125239633554,
71,0,71,0,,,,,,,,,52.317669099982595,52.317669099982595,52.317669099982595,52.317669099982595,52.317669099982595,p,0.14322750002611428,52.48074589998578,52.48074589998578,52.88242929999251,52.88242929999251,,,,,,,2023-04-12_11h23.44.608,bandit task,2022.2.5,60.052125239633554,
72,0,72,0,,,,,,,,,52.88242929999251,52.88242929999251,52.88242929999251,52.88242929999251,52.88242929999251,p,0.16013770003337413,53.063598999986425,53.063598999986425,53.466433399997186,53.466433399997186,,,,,,,2023-04-12_11h23.44.608,bandit task,2022.2.5,60.052125239633554,
73,0,73,0,,,,,,,,,53.466433399997186,53.466433399997186,53.466433399997186,53.466433399997186,53.466433399997186,p,0.7430868000374176,54.230198699980974,54.230198699980974,54.63062569999602,54.63062569999602,,,,,,,2023-04-12_11h23.44.608,bandit task,2022.2.5,60.052125239633554,
74,0,74,0,,,,,,,,,54.63062569999602,54.63062569999602,54.63062569999602,54.63062569999602,54.63062569999602,p,0.29258270002901554,54.94606129999738,54.94606129999738,55.34718669997528,55.34718669997528,,,,,,,2023-04-12_11h23.44.608,bandit task,2022.2.5,60.052125239633554,
75,0,75,0,,,,,,,,,55.34718669997528,55.34718669997528,55.34718669997528,55.34718669997528,55.34718669997528,p,0.03556740001658909,55.41253049997613,55.41253049997613,55.81501229997957,55.81501229997957,,,,,,,2023-04-12_11h23.44.608,bandit task,2022.2.5,60.052125239633554,
76,0,76,0,,,,,,,,,55.81501229997957,55.81501229997957,55.81501229997957,55.81501229997957,55.81501229997957,p,0.24238850001711398,56.09463999999571,56.09463999999571,,,,,,,,,2023-04-12_11h23.44.608,bandit task,2022.2.5,60.052125239633554,
77,0,77,0,,,,,,,,,56.497930899990024,56.497930899990024,56.497930899990024,56.497930899990024,56.497930899990024,p,0.10160360002191737,56.644101199985016,56.644101199985016,,,,,,,,,2023-04-12_11h23.44.608,bandit task,2022.2.5,60.052125239633554,
78,0,78,0,,,,,,,,,57.04662599999574,57.04662599999574,57.04662599999574,57.04662599999574,57.04662599999574,p,0.05462120004813187,57.12875759997405,57.12875759997405,57.529996199999005,57.529996199999005,,,,,,,2023-04-12_11h23.44.608,bandit task,2022.2.5,60.052125239633554,
79,0,79,0,,,,,,,,,57.529996199999005,57.529996199999005,57.529996199999005,57.529996199999005,57.529996199999005,p,0.08772470004623756,57.64505599997938,57.64505599997938,58.04619989998173,58.04619989998173,,,,,,,2023-04-12_11h23.44.608,bandit task,2022.2.5,60.052125239633554,
80,0,80,0,,,,,,,,,58.04619989998173,58.04619989998173,58.04619989998173,58.04619989998173,58.04619989998173,p,0.15437730003031902,58.243184899998596,58.243184899998596,,,,,,,,,2023-04-12_11h23.44.608,bandit task,2022.2.5,60.052125239633554,
81,0,81,0,,,,,,,,,58.64592859998811,58.64592859998811,58.64592859998811,58.64592859998811,58.64592859998811,p,0.5144385000166949,59.19310589999077,59.19310589999077,,,,,,,,,2023-04-12_11h23.44.608,bandit task,2022.2.5,60.052125239633554,
82,0,82,0,,,,,,,,,59.59601039998233,59.59601039998233,59.59601039998233,59.59601039998233,59.59601039998233,p,0.1334340000175871,59.7597888999735,59.7597888999735,,,,,,,,,2023-04-12_11h23.44.608,bandit task,2022.2.5,60.052125239633554,
83,0,83,0,,,,,,,,,60.16128989998833,60.16128989998833,60.16128989998833,60.16128989998833,60.16128989998833,p,0.18160250002983958,60.37558469999931,60.37558469999931,,,,,,,,,2023-04-12_11h23.44.608,bandit task,2022.2.5,60.052125239633554,
84,0,84,0,,,,,,,,,60.777821499999845,60.777821499999845,60.777821499999845,60.777821499999845,60.777821499999845,p,0.2137125000008382,61.009665899997344,61.009665899997344,61.41113309998764,61.41113309998764,,,,,,,2023-04-12_11h23.44.608,bandit task,2022.2.5,60.052125239633554,
85,0,85,0,,,,,,,,,61.41113309998764,61.41113309998764,61.41113309998764,61.41113309998764,61.41113309998764,p,0.21682540004258044,61.64254390000133,61.64254390000133,62.04356759999064,62.04356759999064,,,,,,,2023-04-12_11h23.44.608,bandit task,2022.2.5,60.052125239633554,
86,0,86,0,,,,,,,,,62.04356759999064,62.04356759999064,62.04356759999064,62.04356759999064,62.04356759999064,p,0.47239530002116226,62.55814300000202,62.55814300000202,,,,,,,,,2023-04-12_11h23.44.608,bandit task,2022.2.5,60.052125239633554,
87,0,87,0,,,,,,,,,62.9600730999955,62.9600730999955,62.9600730999955,62.9600730999955,62.9600730999955,p,0.2789570000313688,63.25839639999322,63.25839639999322,63.6603401999746,63.6603401999746,,,,,,,2023-04-12_11h23.44.608,bandit task,2022.2.5,60.052125239633554,
88,0,88,0,,,,,,,,,63.6603401999746,63.6603401999746,63.6603401999746,63.6603401999746,63.6603401999746,p,0.11698830002569593,63.808208000002196,63.808208000002196,64.21060099999886,64.21060099999886,,,,,,,2023-04-12_11h23.44.608,bandit task,2022.2.5,60.052125239633554,
89,0,89,0,,,,,,,,,64.21060099999886,64.21060099999886,64.21060099999886,64.21060099999886,64.21060099999886,p,0.007092200015904382,64.256662699976,64.256662699976,,,,,,,,,2023-04-12_11h23.44.608,bandit task,2022.2.5,60.052125239633554,
90,0,90,0,,,,,,,,,64.65890179999406,64.65890179999406,64.65890179999406,64.65890179999406,64.65890179999406,p,0.16550630005076528,64.8412643999909,64.8412643999909,65.24300459999358,65.24300459999358,,,,,,,2023-04-12_11h23.44.608,bandit task,2022.2.5,60.052125239633554,
91,0,91,0,,,,,,,,,65.24300459999358,65.24300459999358,65.24300459999358,65.24300459999358,65.24300459999358,p,0.12975590003770776,65.3904927999829,65.3904927999829,65.79197469999781,65.79197469999781,,,,,,,2023-04-12_11h23.44.608,bandit task,2022.2.5,60.052125239633554,
92,0,92,0,,,,,,,,,65.79197469999781,65.79197469999781,65.79197469999781,65.79197469999781,65.79197469999781,p,0.08999900001799688,65.90695859998232,65.90695859998232,66.30881570000201,66.30881570000201,,,,,,,2023-04-12_11h23.44.608,bandit task,2022.2.5,60.052125239633554,
93,0,93,0,,,,,,,,,66.30881570000201,66.30881570000201,66.30881570000201,66.30881570000201,66.30881570000201,p,0.07741990001522936,66.40673160000006,66.40673160000006,66.80778339999961,66.80778339999961,,,,,,,2023-04-12_11h23.44.608,bandit task,2022.2.5,60.052125239633554,
94,0,94,0,,,,,,,,,66.80778339999961,66.80778339999961,66.80778339999961,66.80778339999961,66.80778339999961,p,0.12225450002006255,66.9578438999888,66.9578438999888,,,,,,,,,2023-04-12_11h23.44.608,bandit task,2022.2.5,60.052125239633554,
95,0,95,0,,,,,,,,,67.37406149998424,67.37406149998424,67.37406149998424,67.37406149998424,67.37406149998424,p,0.14738520001992583,67.55558210000163,67.55558210000163,,,,,,,,,2023-04-12_11h23.44.608,bandit task,2022.2.5,60.052125239633554,
96,0,96,0,,,,,,,,,67.95732209997368,67.95732209997368,67.95732209997368,67.95732209997368,67.95732209997368,p,0.09280060004675761,68.07270140000037,68.07270140000037,68.47526929999003,68.47526929999003,,,,,,,2023-04-12_11h23.44.608,bandit task,2022.2.5,60.052125239633554,
97,0,97,0,,,,,,,,,68.47526929999003,68.47526929999003,68.47526929999003,68.47526929999003,68.47526929999003,p,0.27340170001843944,68.7878407999815,68.7878407999815,,,,,,,,,2023-04-12_11h23.44.608,bandit task,2022.2.5,60.052125239633554,
98,0,98,0,,,,,,,,,69.19050309999147,69.19050309999147,69.19050309999147,69.19050309999147,69.19050309999147,p,0.20392720002564602,69.42230749997543,69.42230749997543,69.82374559997697,69.82374559997697,,,,,,,2023-04-12_11h23.44.608,bandit task,2022.2.5,60.052125239633554,
99,0,99,0,0,0,0,0,,,,,69.82374559997697,69.82374559997697,69.82374559997697,69.82374559997697,69.82374559997697,p,0.37863290004315786,70.22172629999113,70.22172629999113,70.621246900002,70.621246900002,70.621246900002,70.621246900002,space,0.8579672000196297,,,2023-04-12_11h23.44.608,bandit task,2022.2.5,60.052125239633554,
99,0,99,0,,,,,,,,,,,,,,,,,,,,,,,,,,2023-04-12_11h23.44.608,bandit task,2022.2.5,60.052125239633554,
100,0,100,0,,,,,,,,,71.5068145999976,71.5068145999976,71.5068145999976,71.5068145999976,71.5068145999976,p,0.20001650002086535,71.73749459997634,71.73749459997634,72.13907330000075,72.13907330000075,,,,,,,2023-04-12_11h23.44.608,bandit task,2022.2.5,60.052125239633554,
101,0,101,0,,,,,,,,,72.13907330000075,72.13907330000075,72.13907330000075,72.13907330000075,72.13907330000075,p,0.18315160003839992,72.33725089998916,72.33725089998916,72.73876639999798,72.73876639999798,,,,,,,2023-04-12_11h23.44.608,bandit task,2022.2.5,60.052125239633554,
102,0,102,0,,,,,,,,,72.73876639999798,72.73876639999798,72.73876639999798,72.73876639999798,72.73876639999798,p,0.013432100007776171,72.77074639999773,72.77074639999773,73.17225049997796,73.17225049997796,,,,,,,2023-04-12_11h23.44.608,bandit task,2022.2.5,60.052125239633554,
103,0,103,0,,,,,,,,,73.17225049997796,73.17225049997796,73.17225049997796,73.17225049997796,73.17225049997796,p,0.14684030003263615,73.35212619998492,73.35212619998492,,,,,,,,,2023-04-12_11h23.44.608,bandit task,2022.2.5,60.052125239633554,
104,0,104,0,,,,,,,,,73.75463899999158,73.75463899999158,73.75463899999158,73.75463899999158,73.75463899999158,p,0.0548152000119444,73.83693159997347,73.83693159997347,74.25307229999453,74.25307229999453,,,,,,,2023-04-12_11h23.44.608,bandit task,2022.2.5,60.052125239633554,
105,0,105,0,,,,,,,,,74.25307229999453,74.25307229999453,74.25307229999453,74.25307229999453,74.25307229999453,p,0.08965930005069822,74.38480799997342,74.38480799997342,,,,,,,,,2023-04-12_11h23.44.608,bandit task,2022.2.5,60.052125239633554,
106,0,106,0,,,,,,,,,74.78711409997777,74.78711409997777,74.78711409997777,74.78711409997777,74.78711409997777,p,0.13812090002465993,74.95283689998905,74.95283689998905,75.35432169999694,75.35432169999694,,,,,,,2023-04-12_11h23.44.608,bandit task,2022.2.5,60.052125239633554,
107,0,107,0,,,,,,,,,75.35432169999694,75.35432169999694,75.35432169999694,75.35432169999694,75.35432169999694,p,0.19417240002076142,75.56897139997454,75.56897139997454,75.97151799997664,75.97151799997664,,,,,,,2023-04-12_11h23.44.608,bandit task,2022.2.5,60.052125239633554,
108,0,108,0,,,,,,,,,75.97151799997664,75.97151799997664,75.97151799997664,75.97151799997664,75.97151799997664,p,0.09413900002255104,76.10068499998306,76.10068499998306,,,,,,,,,2023-04-12_11h23.44.608,bandit task,2022.2.5,60.052125239633554,
109,0,109,0,,,,,,,,,76.50451629998861,76.50451629998861,76.50451629998861,76.50451629998861,76.50451629998861,p,0.10571730002993718,76.65050319998409,76.65050319998409,,,,,,,,,2023-04-12_11h23.44.608,bandit task,2022.2.5,60.052125239633554,
110,0,110,0,,,,,,,,,77.05361489998177,77.05361489998177,77.05361489998177,77.05361489998177,77.05361489998177,p,0.16589380003279075,77.25042629998643,77.25042629998643,,,,,,,,,2023-04-12_11h23.44.608,bandit task,2022.2.5,60.052125239633554,
111,0,111,0,,,,,,,,,77.65231959999073,77.65231959999073,77.65231959999073,77.65231959999073,77.65231959999073,p,0.17915630002971739,77.85141039997688,77.85141039997688,78.253375100001,78.253375100001,,,,,,,2023-04-12_11h23.44.608,bandit task,2022.2.5,60.052125239633554,
112,0,112,0,,,,,,,,,78.253375100001,78.253375100001,78.253375100001,78.253375100001,78.253375100001,p,0.2377217000175733,78.5180063000007,78.5180063000007,78.91888559999643,78.91888559999643,,,,,,,2023-04-12_11h23.44.608,bandit task,2022.2.5,60.052125239633554,
113,0,113,0,,,,,,,,,78.91888559999643,78.91888559999643,78.91888559999643,78.91888559999643,78.91888559999643,p,0.044149499997729436,78.98382399999537,78.98382399999537,79.38524019997567,79.38524019997567,,,,,,,2023-04-12_11h23.44.608,bandit task,2022.2.5,60.052125239633554,
114,0,114,0,,,,,,,,,79.38524019997567,79.38524019997567,79.38524019997567,79.38524019997567,79.38524019997567,p,0.23971410002559423,79.64997129997937,79.64997129997937,80.05111989998841,80.05111989998841,,,,,,,2023-04-12_11h23.44.608,bandit task,2022.2.5,60.052125239633554,
115,0,115,0,,,,,,,,,80.05111989998841,80.05111989998841,80.05111989998841,80.05111989998841,80.05111989998841,p,0.18871310001122765,80.26665819998016,80.26665819998016,80.66897909998079,80.66897909998079,,,,,,,2023-04-12_11h23.44.608,bandit task,2022.2.5,60.052125239633554,
116,0,116,0,,,,,,,,,80.66897909998079,80.66897909998079,80.66897909998079,80.66897909998079,80.66897909998079,p,0.3530336000258103,81.04983229999198,81.04983229999198,81.45038179997937,81.45038179997937,,,,,,,2023-04-12_11h23.44.608,bandit task,2022.2.5,60.052125239633554,
117,0,117,0,,,,,,,,,81.45038179997937,81.45038179997937,81.45038179997937,81.45038179997937,81.45038179997937,p,0.1410238000098616,81.61566459998721,81.61566459998721,82.01683619999676,82.01683619999676,,,,,,,2023-04-12_11h23.44.608,bandit task,2022.2.5,60.052125239633554,
118,0,118,0,,,,,,,,,82.01683619999676,82.01683619999676,82.01683619999676,82.01683619999676,82.01683619999676,p,0.24512190002133138,82.28200889998698,82.28200889998698,82.68376849999186,82.68376849999186,,,,,,,2023-04-12_11h23.44.608,bandit task,2022.2.5,60.052125239633554,
119,0,119,0,,,,,,,,,82.68376849999186,82.68376849999186,82.68376849999186,82.68376849999186,82.68376849999186,p,0.1994787000294309,82.8989859999856,82.8989859999856,83.30008209997322,83.30008209997322,,,,,,,2023-04-12_11h23.44.608,bandit task,2022.2.5,60.052125239633554,
120,0,120,0,,,,,,,,,83.30008209997322,83.30008209997322,83.30008209997322,83.30008209997322,83.30008209997322,p,0.27516499999910593,83.59844479997992,83.59844479997992,84.00056029998814,84.00056029998814,,,,,,,2023-04-12_11h23.44.608,bandit task,2022.2.5,60.052125239633554,
121,0,121,0,,,,,,,,,84.00056029998814,84.00056029998814,84.00056029998814,84.00056029998814,84.00056029998814,p,0.21930610004346818,84.24783999999636,84.24783999999636,84.64985549999983,84.64985549999983,,,,,,,2023-04-12_11h23.44.608,bandit task,2022.2.5,60.052125239633554,
122,0,122,0,,,,,,,,,84.64985549999983,84.64985549999983,84.64985549999983,84.64985549999983,84.64985549999983,p,0.22139780002180487,84.89722419998725,84.89722419998725,85.2984927999787,85.2984927999787,,,,,,,2023-04-12_11h23.44.608,bandit task,2022.2.5,60.052125239633554,
123,0,123,0,,,,,,,,,85.2984927999787,85.2984927999787,85.2984927999787,85.2984927999787,85.2984927999787,p,0.2093983000377193,85.53087609997601,85.53087609997601,85.93191749998368,85.93191749998368,,,,,,,2023-04-12_11h23.44.608,bandit task,2022.2.5,60.052125239633554,
124,0,124,0,,,,,,,,,85.93191749998368,85.93191749998368,85.93191749998368,85.93191749998368,85.93191749998368,p,0.29344800001126714,86.24671989999479,86.24671989999479,86.64827649999643,86.64827649999643,,,,,,,2023-04-12_11h23.44.608,bandit task,2022.2.5,60.052125239633554,
125,0,125,0,,,,,,,,,86.64827649999643,86.64827649999643,86.64827649999643,86.64827649999643,86.64827649999643,p,0.1948710000142455,86.86364559998037,86.86364559998037,87.2649292999995,87.2649292999995,,,,,,,2023-04-12_11h23.44.608,bandit task,2022.2.5,60.052125239633554,
126,0,126,0,,,,,,,,,87.2649292999995,87.2649292999995,87.2649292999995,87.2649292999995,87.2649292999995,p,0.1613904999976512,87.44596389998333,87.44596389998333,87.84807479998562,87.84807479998562,,,,,,,2023-04-12_11h23.44.608,bandit task,2022.2.5,60.052125239633554,
127,0,127,0,,,,,,,,,87.84807479998562,87.84807479998562,87.84807479998562,87.84807479998562,87.84807479998562,p,0.13465890003135428,88.012956999999,88.012956999999,88.41358619998209,88.41358619998209,,,,,,,2023-04-12_11h23.44.608,bandit task,2022.2.5,60.052125239633554,
128,0,128,0,,,,,,,,,88.41358619998209,88.41358619998209,88.41358619998209,88.41358619998209,88.41358619998209,p,0.10034900004393421,88.54446539998753,88.54446539998753,,,,,,,,,2023-04-12_11h23.44.608,bandit task,2022.2.5,60.052125239633554,
129,0,129,0,,,,,,,,,88.94717020000098,88.94717020000098,88.94717020000098,88.94717020000098,88.94717020000098,p,0.22397630001069047,89.19539459998487,89.19539459998487,89.59798619998037,89.59798619998037,,,,,,,2023-04-12_11h23.44.608,bandit task,2022.2.5,60.052125239633554,
130,0,130,0,,,,,,,,,89.59798619998037,89.59798619998037,89.59798619998037,89.59798619998037,89.59798619998037,p,0.168607100029476,89.81035509999492,89.81035509999492,,,,,,,,,2023-04-12_11h23.44.608,bandit task,2022.2.5,60.052125239633554,
131,0,131,0,,,,,,,,,90.21334999997634,90.21334999997634,90.21334999997634,90.21334999997634,90.21334999997634,p,0.12427640001988038,90.3610786999925,90.3610786999925,90.76389339999878,90.76389339999878,,,,,,,2023-04-12_11h23.44.608,bandit task,2022.2.5,60.052125239633554,
132,0,132,0,,,,,,,,,90.76389339999878,90.76389339999878,90.76389339999878,90.76389339999878,90.76389339999878,p,0.19653020004625432,90.9930298999825,90.9930298999825,,,,,,,,,2023-04-12_11h23.44.608,bandit task,2022.2.5,60.052125239633554,
133,0,133,0,,,,,,,,,91.39679299999261,91.39679299999261,91.39679299999261,91.39679299999261,91.39679299999261,p,0.1742369000276085,91.5949778999784,91.5949778999784,91.99586419999832,91.99586419999832,,,,,,,2023-04-12_11h23.44.608,bandit task,2022.2.5,60.052125239633554,
134,0,134,0,,,,,,,,,91.99586419999832,91.99586419999832,91.99586419999832,91.99586419999832,91.99586419999832,p,0.33316810001269914,92.36049559997628,92.36049559997628,92.76127409999026,92.76127409999026,,,,,,,2023-04-12_11h23.44.608,bandit task,2022.2.5,60.052125239633554,
135,0,135,0,,,,,,,,,92.76127409999026,92.76127409999026,92.76127409999026,92.76127409999026,92.76127409999026,p,0.19421410001814365,92.97667669999646,92.97667669999646,93.37765819998458,93.37765819998458,,,,,,,2023-04-12_11h23.44.608,bandit task,2022.2.5,60.052125239633554,
136,0,136,0,,,,,,,,,93.37765819998458,93.37765819998458,93.37765819998458,93.37765819998458,93.37765819998458,p,0.2064474000071641,93.62516329999198,93.62516329999198,,,,,,,,,2023-04-12_11h23.44.608,bandit task,2022.2.5,60.052125239633554,
137,0,137,0,,,,,,,,,94.02785929999663,94.02785929999663,94.02785929999663,94.02785929999663,94.02785929999663,p,0.1576294000260532,94.20975529999123,94.20975529999123,94.61095689999638,94.61095689999638,,,,,,,2023-04-12_11h23.44.608,bandit task,2022.2.5,60.052125239633554,
138,0,138,0,,,,,,,,,94.61095689999638,94.61095689999638,94.61095689999638,94.61095689999638,94.61095689999638,p,0.18941380002070218,94.82591269997647,94.82591269997647,95.22718009998789,95.22718009998789,,,,,,,2023-04-12_11h23.44.608,bandit task,2022.2.5,60.052125239633554,
139,0,139,0,,,,,,,,,95.22718009998789,95.22718009998789,95.22718009998789,95.22718009998789,95.22718009998789,p,0.28295420002541505,95.52540709997993,95.52540709997993,95.92784659998142,95.92784659998142,,,,,,,2023-04-12_11h23.44.608,bandit task,2022.2.5,60.052125239633554,
140,0,140,0,,,,,,,,,95.92784659998142,95.92784659998142,95.92784659998142,95.92784659998142,95.92784659998142,p,0.28578900001593865,96.25719059997937,96.25719059997937,,,,,,,,,2023-04-12_11h23.44.608,bandit task,2022.2.5,60.052125239633554,
141,0,141,0,,,,,,,,,96.6595414999756,96.6595414999756,96.6595414999756,96.6595414999756,96.6595414999756,p,0.27886950003448874,96.97328799997922,96.97328799997922,,,,,,,,,2023-04-12_11h23.44.608,bandit task,2022.2.5,60.052125239633554,
142,0,142,0,,,,,,,,,97.3757189999742,97.3757189999742,97.3757189999742,97.3757189999742,97.3757189999742,p,0.2040329000155907,97.60750289997668,97.60750289997668,98.00871119997464,98.00871119997464,,,,,,,2023-04-12_11h23.44.608,bandit task,2022.2.5,60.052125239633554,
143,0,143,0,,,,,,,,,98.00871119997464,98.00871119997464,98.00871119997464,98.00871119997464,98.00871119997464,p,0.09683520000544377,98.12412490000133,98.12412490000133,98.52559399997699,98.52559399997699,,,,,,,2023-04-12_11h23.44.608,bandit task,2022.2.5,60.052125239633554,
144,0,144,0,,,,,,,,,98.52559399997699,98.52559399997699,98.52559399997699,98.52559399997699,98.52559399997699,p,0.23751950002042577,98.79042039997876,98.79042039997876,99.19187959999545,99.19187959999545,,,,,,,2023-04-12_11h23.44.608,bandit task,2022.2.5,60.052125239633554,
145,0,145,0,,,,,,,,,99.19187959999545,99.19187959999545,99.19187959999545,99.19187959999545,99.19187959999545,p,0.24335560001782142,99.45642079997924,99.45642079997924,99.85899149999022,99.85899149999022,,,,,,,2023-04-12_11h23.44.608,bandit task,2022.2.5,60.052125239633554,
146,0,146,0,,,,,,,,,99.85899149999022,99.85899149999022,99.85899149999022,99.85899149999022,99.85899149999022,p,0.1467100000299979,100.0234079999791,100.0234079999791,100.42556119998335,100.42556119998335,,,,,,,2023-04-12_11h23.44.608,bandit task,2022.2.5,60.052125239633554,
147,0,147,0,,,,,,,,,100.42556119998335,100.42556119998335,100.42556119998335,100.42556119998335,100.42556119998335,p,0.21453390002716333,100.6557658999809,100.6557658999809,101.05712939999648,101.05712939999648,,,,,,,2023-04-12_11h23.44.608,bandit task,2022.2.5,60.052125239633554,
148,0,148,0,,,,,,,,,101.05712939999648,101.05712939999648,101.05712939999648,101.05712939999648,101.05712939999648,p,0.16317660003551282,101.23915629999829,101.23915629999829,101.64024670000072,101.64024670000072,,,,,,,2023-04-12_11h23.44.608,bandit task,2022.2.5,60.052125239633554,
149,0,149,0,,,,,,,,,101.64024670000072,101.64024670000072,101.64024670000072,101.64024670000072,101.64024670000072,p,0.13420510001014918,101.80576619997737,101.80576619997737,102.20660529998713,102.20660529998713,,,,,,,2023-04-12_11h23.44.608,bandit task,2022.2.5,60.052125239633554,
150,0,150,0,,,,,,,,,102.20660529998713,102.20660529998713,102.20660529998713,102.20660529998713,102.20660529998713,p,0.19979350003995933,102.42204309999943,102.42204309999943,102.8237532999774,102.8237532999774,,,,,,,2023-04-12_11h23.44.608,bandit task,2022.2.5,60.052125239633554,
151,0,151,0,,,,,,,,,102.8237532999774,102.8237532999774,102.8237532999774,102.8237532999774,102.8237532999774,p,0.20985250003286637,103.05478869998478,103.05478869998478,103.45680679997895,103.45680679997895,,,,,,,2023-04-12_11h23.44.608,bandit task,2022.2.5,60.052125239633554,
152,0,152,0,,,,,,,,,103.45680679997895,103.45680679997895,103.45680679997895,103.45680679997895,103.45680679997895,p,0.20671990004484542,103.68800109997392,103.68800109997392,104.08981739997398,104.08981739997398,,,,,,,2023-04-12_11h23.44.608,bandit task,2022.2.5,60.052125239633554,
153,0,153,0,,,,,,,,,104.08981739997398,104.08981739997398,104.08981739997398,104.08981739997398,104.08981739997398,p,0.1662326000223402,104.28776879998622,104.28776879998622,104.68936419999227,104.68936419999227,,,,,,,2023-04-12_11h23.44.608,bandit task,2022.2.5,60.052125239633554,
154,0,154,0,,,,,,,,,104.68936419999227,104.68936419999227,104.68936419999227,104.68936419999227,104.68936419999227,p,0.1578439000295475,104.88616979998187,104.88616979998187,,,,,,,,,2023-04-12_11h23.44.608,bandit task,2022.2.5,60.052125239633554,
155,0,155,0,,,,,,,,,105.28830629997537,105.28830629997537,105.28830629997537,105.28830629997537,105.28830629997537,p,0.23181010002736002,105.53663129999768,105.53663129999768,105.93854119998286,105.93854119998286,,,,,,,2023-04-12_11h23.44.608,bandit task,2022.2.5,60.052125239633554,
156,0,156,0,,,,,,,,,105.93854119998286,105.93854119998286,105.93854119998286,105.93854119998286,105.93854119998286,p,0.18192540004383773,106.13643489999231,106.13643489999231,106.53906270000152,106.53906270000152,,,,,,,2023-04-12_11h23.44.608,bandit task,2022.2.5,60.052125239633554,
157,0,157,0,,,,,,,,,106.53906270000152,106.53906270000152,106.53906270000152,106.53906270000152,106.53906270000152,p,0.1879406000371091,106.76845799997682,106.76845799997682,,,,,,,,,2023-04-12_11h23.44.608,bandit task,2022.2.5,60.052125239633554,
158,0,158,0,,,,,,,,,107.17121889998089,107.17121889998089,107.17121889998089,107.17121889998089,107.17121889998089,p,0.17022770002949983,107.36904739998863,107.36904739998863,107.77102329998161,107.77102329998161,,,,,,,2023-04-12_11h23.44.608,bandit task,2022.2.5,60.052125239633554,
159,0,159,0,,,,,,,,,107.77102329998161,107.77102329998161,107.77102329998161,107.77102329998161,107.77102329998161,p,0.2759193000092637,108.06900379998842,108.06900379998842,108.47009369998705,108.47009369998705,,,,,,,2023-04-12_11h23.44.608,bandit task,2022.2.5,60.052125239633554,
160,0,160,0,,,,,,,,,108.47009369998705,108.47009369998705,108.47009369998705,108.47009369998705,108.47009369998705,p,0.15113960002781823,108.6526021999889,108.6526021999889,109.05312779999804,109.05312779999804,,,,,,,2023-04-12_11h23.44.608,bandit task,2022.2.5,60.052125239633554,
161,0,161,0,,,,,,,,,109.05312779999804,109.05312779999804,109.05312779999804,109.05312779999804,109.05312779999804,p,0.11663840000983328,109.18489459998091,109.18489459998091,109.58573089999845,109.58573089999845,,,,,,,2023-04-12_11h23.44.608,bandit task,2022.2.5,60.052125239633554,
162,0,162,0,,,,,,,,,109.58573089999845,109.58573089999845,109.58573089999845,109.58573089999845,109.58573089999845,p,0.11281690001487732,109.73368119998486,109.73368119998486,,,,,,,,,2023-04-12_11h23.44.608,bandit task,2022.2.5,60.052125239633554,
163,0,163,0,,,,,,,,,110.1364074999874,110.1364074999874,110.1364074999874,110.1364074999874,110.1364074999874,p,0.07539189999806695,110.23456479999004,110.23456479999004,110.63558259999263,110.63558259999263,,,,,,,2023-04-12_11h23.44.608,bandit task,2022.2.5,60.052125239633554,
164,0,164,0,,,,,,,,,110.63558259999263,110.63558259999263,110.63558259999263,110.63558259999263,110.63558259999263,p,0.17978390003554523,110.84964289999334,110.84964289999334,,,,,,,,,2023-04-12_11h23.44.608,bandit task,2022.2.5,60.052125239633554,
165,0,165,0,,,,,,,,,111.25288489999366,111.25288489999366,111.25288489999366,111.25288489999366,111.25288489999366,p,0.22156550001818687,111.50059769998188,111.50059769998188,111.90209319998394,111.90209319998394,,,,,,,2023-04-12_11h23.44.608,bandit task,2022.2.5,60.052125239633554,
166,0,166,0,,,,,,,,,111.90209319998394,111.90209319998394,111.90209319998394,111.90209319998394,111.90209319998394,p,0.24266400001943111,112.16695709998021,112.16695709998021,112.56867609999608,112.56867609999608,,,,,,,2023-04-12_11h23.44.608,bandit task,2022.2.5,60.052125239633554,
167,0,167,0,,,,,,,,,112.56867609999608,112.56867609999608,112.56867609999608,112.56867609999608,112.56867609999608,p,0.1894651000329759,112.78314789998694,112.78314789998694,113.18428779998794,113.18428779998794,,,,,,,2023-04-12_11h23.44.608,bandit task,2022.2.5,60.052125239633554,
168,0,168,0,,,,,,,,,113.18428779998794,113.18428779998794,113.18428779998794,113.18428779998794,113.18428779998794,p,0.22130080001079477,113.43278559998726,113.43278559998726,113.83479850000003,113.83479850000003,,,,,,,2023-04-12_11h23.44.608,bandit task,2022.2.5,60.052125239633554,
169,0,169,0,,,,,,,,,113.83479850000003,113.83479850000003,113.83479850000003,113.83479850000003,113.83479850000003,p,0.23437200003536418,114.100286699977,114.100286699977,,,,,,,,,2023-04-12_11h23.44.608,bandit task,2022.2.5,60.052125239633554,
170,0,170,0,,,,,,,,,114.51686579998932,114.51686579998932,114.51686579998932,114.51686579998932,114.51686579998932,p,0.12887770001543686,114.68129619999672,114.68129619999672,,,,,,,,,2023-04-12_11h23.44.608,bandit task,2022.2.5,60.052125239633554,
171,0,171,0,,,,,,,,,115.0840329999919,115.0840329999919,115.0840329999919,115.0840329999919,115.0840329999919,p,0.1497712000273168,115.24860579997767,115.24860579997767,115.65005689999089,115.65005689999089,,,,,,,2023-04-12_11h23.44.608,bandit task,2022.2.5,60.052125239633554,
172,0,172,0,,,,,,,,,115.65005689999089,115.65005689999089,115.65005689999089,115.65005689999089,115.65005689999089,p,0.22799730001133867,115.8984387999808,115.8984387999808,116.3007483999827,116.3007483999827,,,,,,,2023-04-12_11h23.44.608,bandit task,2022.2.5,60.052125239633554,
173,0,173,0,,,,,,,,,116.3007483999827,116.3007483999827,116.3007483999827,116.3007483999827,116.3007483999827,p,0.2631867000309285,116.5812173000013,116.5812173000013,116.98205099999905,116.98205099999905,,,,,,,2023-04-12_11h23.44.608,bandit task,2022.2.5,60.052125239633554,
174,0,174,0,,,,,,,,,116.98205099999905,116.98205099999905,116.98205099999905,116.98205099999905,116.98205099999905,p,0.22604840001440607,117.230636399996,117.230636399996,117.6333658999938,117.6333658999938,,,,,,,2023-04-12_11h23.44.608,bandit task,2022.2.5,60.052125239633554,
175,0,175,0,,,,,,,,,117.6333658999938,117.6333658999938,117.6333658999938,117.6333658999938,117.6333658999938,p,0.18904720005230047,117.8471061999735,117.8471061999735,118.24919569998747,118.24919569998747,,,,,,,2023-04-12_11h23.44.608,bandit task,2022.2.5,60.052125239633554,
176,0,176,0,,,,,,,,,118.24919569998747,118.24919569998747,118.24919569998747,118.24919569998747,118.24919569998747,p,0.14024620002601296,118.41379699998652,118.41379699998652,118.81517629997688,118.81517629997688,,,,,,,2023-04-12_11h23.44.608,bandit task,2022.2.5,60.052125239633554,
177,0,177,0,,,,,,,,,118.81517629997688,118.81517629997688,118.81517629997688,118.81517629997688,118.81517629997688,o,0.15618490002816543,118.99704439999186,118.99704439999186,119.3987194999936,119.3987194999936,,,,,,,2023-04-12_11h23.44.608,bandit task,2022.2.5,60.052125239633554,
178,0,178,0,,,,,,,,,119.3987194999936,119.3987194999936,119.3987194999936,119.3987194999936,119.3987194999936,o,0.2614981000078842,119.67972259997623,119.67972259997623,120.08161559997825,120.08161559997825,,,,,,,2023-04-12_11h23.44.608,bandit task,2022.2.5,60.052125239633554,
179,0,179,0,,,,,,,,,120.08161559997825,120.08161559997825,120.08161559997825,120.08161559997825,120.08161559997825,o,0.1821808000386227,120.29440289997729,120.29440289997729,,,,,,,,,2023-04-12_11h23.44.608,bandit task,2022.2.5,60.052125239633554,
180,0,180,0,,,,,,,,,120.69784849998541,120.69784849998541,120.69784849998541,120.69784849998541,120.69784849998541,o,0.3225609000073746,121.06104579998646,121.06104579998646,,,,,,,,,2023-04-12_11h23.44.608,bandit task,2022.2.5,60.052125239633554,
181,0,181,0,,,,,,,,,121.46339530000114,121.46339530000114,121.46339530000114,121.46339530000114,121.46339530000114,o,0.1555503000272438,121.64509119998547,121.64509119998547,122.04671279998729,122.04671279998729,,,,,,,2023-04-12_11h23.44.608,bandit task,2022.2.5,60.052125239633554,
182,0,182,0,,,,,,,,,122.04671279998729,122.04671279998729,122.04671279998729,122.04671279998729,122.04671279998729,o,0.12319080001907423,122.19486219997634,122.19486219997634,122.59649529997841,122.59649529997841,,,,,,,2023-04-12_11h23.44.608,bandit task,2022.2.5,60.052125239633554,
183,0,183,0,,,,,,,,,122.59649529997841,122.59649529997841,122.59649529997841,122.59649529997841,122.59649529997841,o,0.1640089000284206,122.77833799997461,122.77833799997461,123.17977659997996,123.17977659997996,,,,,,,2023-04-12_11h23.44.608,bandit task,2022.2.5,60.052125239633554,
184,0,184,0,,,,,,,,,123.17977659997996,123.17977659997996,123.17977659997996,123.17977659997996,123.17977659997996,o,0.07564500003354624,123.27833719999762,123.27833719999762,123.67871680000098,123.67871680000098,,,,,,,2023-04-12_11h23.44.608,bandit task,2022.2.5,60.052125239633554,
185,0,185,0,,,,,,,,,123.67871680000098,123.67871680000098,123.67871680000098,123.67871680000098,123.67871680000098,o,0.19106300003477372,123.89434389999951,123.89434389999951,124.29494899997371,124.29494899997371,,,,,,,2023-04-12_11h23.44.608,bandit task,2022.2.5,60.052125239633554,
186,0,186,0,,,,,,,,,124.29494899997371,124.29494899997371,124.29494899997371,124.29494899997371,124.29494899997371,o,0.26182949999929406,124.57729589997325,124.57729589997325,124.97816139998031,124.97816139998031,,,,,,,2023-04-12_11h23.44.608,bandit task,2022.2.5,60.052125239633554,
187,0,187,0,,,,,,,,,124.97816139998031,124.97816139998031,124.97816139998031,124.97816139998031,124.97816139998031,o,0.13682200002949685,125.14360069998656,125.14360069998656,125.54589639999904,125.54589639999904,,,,,,,2023-04-12_11h23.44.608,bandit task,2022.2.5,60.052125239633554,
188,0,188,0,,,,,,,,,125.54589639999904,125.54589639999904,125.54589639999904,125.54589639999904,125.54589639999904,o,0.2573876000242308,125.82647239998914,125.82647239998914,126.22790019999957,126.22790019999957,,,,,,,2023-04-12_11h23.44.608,bandit task,2022.2.5,60.052125239633554,
189,0,189,0,,,,,,,,,126.22790019999957,126.22790019999957,126.22790019999957,126.22790019999957,126.22790019999957,o,0.11221070002648048,126.3596838999947,126.3596838999947,126.76053800000227,126.76053800000227,,,,,,,2023-04-12_11h23.44.608,bandit task,2022.2.5,60.052125239633554,
190,0,190,0,,,,,,,,,126.76053800000227,126.76053800000227,126.76053800000227,126.76053800000227,126.76053800000227,o,0.08962170002632774,126.89143979997607,126.89143979997607,,,,,,,,,2023-04-12_11h23.44.608,bandit task,2022.2.5,60.052125239633554,
191,0,191,0,,,,,,,,,127.29377789999126,127.29377789999126,127.29377789999126,127.29377789999126,127.29377789999126,o,0.1759596000192687,127.49226189998444,127.49226189998444,127.89444099998218,127.89444099998218,,,,,,,2023-04-12_11h23.44.608,bandit task,2022.2.5,60.052125239633554,
192,0,192,0,,,,,,,,,127.89444099998218,127.89444099998218,127.89444099998218,127.89444099998218,127.89444099998218,o,0.2444324000098277,128.17415679999976,128.17415679999976,,,,,,,,,2023-04-12_11h23.44.608,bandit task,2022.2.5,60.052125239633554,
193,0,193,0,,,,,,,,,128.57732159999432,128.57732159999432,128.57732159999432,128.57732159999432,128.57732159999432,o,0.11726620001718402,128.72510219999822,128.72510219999822,129.12653199999477,129.12653199999477,,,,,,,2023-04-12_11h23.44.608,bandit task,2022.2.5,60.052125239633554,
194,0,194,0,,,,,,,,,129.12653199999477,129.12653199999477,129.12653199999477,129.12653199999477,129.12653199999477,o,0.29981240001507103,129.44167619998916,129.44167619998916,129.84289559998433,129.84289559998433,,,,,,,2023-04-12_11h23.44.608,bandit task,2022.2.5,60.052125239633554,
195,0,195,0,,,,,,,,,129.84289559998433,129.84289559998433,129.84289559998433,129.84289559998433,129.84289559998433,o,0.3271508000034373,130.20657219999703,130.20657219999703,,,,,,,,,2023-04-12_11h23.44.608,bandit task,2022.2.5,60.052125239633554,
196,0,196,0,,,,,,,,,130.6088821000012,130.6088821000012,130.6088821000012,130.6088821000012,130.6088821000012,o,0.7553000000480097,131.39057829999365,131.39057829999365,131.79112259999965,131.79112259999965,,,,,,,2023-04-12_11h23.44.608,bandit task,2022.2.5,60.052125239633554,
197,0,197,0,,,,,,,,,131.79112259999965,131.79112259999965,131.79112259999965,131.79112259999965,131.79112259999965,o,0.17329250002512708,132.0055139999895,132.0055139999895,,,,,,,,,2023-04-12_11h23.44.608,bandit task,2022.2.5,60.052125239633554,
198,0,198,0,,,,,,,,,132.40847539997776,132.40847539997776,132.40847539997776,132.40847539997776,132.40847539997776,o,0.20767220002016984,132.6394790999766,132.6394790999766,133.0416081000003,133.0416081000003,,,,,,,2023-04-12_11h23.44.608,bandit task,2022.2.5,60.052125239633554,
199,0,199,0,0,0,0,0,,,,,133.0416081000003,133.0416081000003,133.0416081000003,133.0416081000003,133.0416081000003,o,0.21151070002815686,133.27312279999023,133.27312279999023,133.67281249997905,133.67281249997905,133.67281249997905,133.67281249997905,space,2.3748340000165626,,,2023-04-12_11h23.44.608,bandit task,2022.2.5,60.052125239633554,
199,0,199,0,,,,,,,,,,,,,,,,,,,,,,,,,,2023-04-12_11h23.44.608,bandit task,2022.2.5,60.052125239633554,
200,0,200,0,,,,,,,,,136.07244999997783,136.07244999997783,136.07244999997783,136.07244999997783,136.07244999997783,o,0.43786200002068654,136.5377786999743,136.5377786999743,136.93881079999846,136.93881079999846,,,,,,,2023-04-12_11h23.44.608,bandit task,2022.2.5,60.052125239633554,
201,0,201,0,,,,,,,,,136.93881079999846,136.93881079999846,136.93881079999846,136.93881079999846,136.93881079999846,o,0.10342090003541671,137.07058529998176,137.07058529998176,137.47229209999205,137.47229209999205,,,,,,,2023-04-12_11h23.44.608,bandit task,2022.2.5,60.052125239633554,
202,0,202,0,,,,,,,,,137.47229209999205,137.47229209999205,137.47229209999205,137.47229209999205,137.47229209999205,o,0.1673533000284806,137.67192169997725,137.67192169997725,138.0717874999973,138.0717874999973,,,,,,,2023-04-12_11h23.44.608,bandit task,2022.2.5,60.052125239633554,
203,0,203,0,,,,,,,,,138.0717874999973,138.0717874999973,138.0717874999973,138.0717874999973,138.0717874999973,o,0.3506204000150319,138.4521754999878,138.4521754999878,,,,,,,,,2023-04-12_11h23.44.608,bandit task,2022.2.5,60.052125239633554,
204,0,204,0,,,,,,,,,138.85439389999374,138.85439389999374,138.85439389999374,138.85439389999374,138.85439389999374,o,0.10666220003622584,138.9865385000012,138.9865385000012,139.38855599999079,139.38855599999079,,,,,,,2023-04-12_11h23.44.608,bandit task,2022.2.5,60.052125239633554,
205,0,205,0,,,,,,,,,139.38855599999079,139.38855599999079,139.38855599999079,139.38855599999079,139.38855599999079,o,0.10952530000940897,139.51986569998553,139.51986569998553,139.921385499998,139.921385499998,,,,,,,2023-04-12_11h23.44.608,bandit task,2022.2.5,60.052125239633554,
206,0,206,0,,,,,,,,,139.921385499998,139.921385499998,139.921385499998,139.921385499998,139.921385499998,o,0.12288610002724454,140.06982049997896,140.06982049997896,140.4707806999795,140.4707806999795,,,,,,,2023-04-12_11h23.44.608,bandit task,2022.2.5,60.052125239633554,
207,0,207,0,,,,,,,,,140.4707806999795,140.4707806999795,140.4707806999795,140.4707806999795,140.4707806999795,o,0.22153020001132973,140.71897089999402,140.71897089999402,141.1208476999891,141.1208476999891,,,,,,,2023-04-12_11h23.44.608,bandit task,2022.2.5,60.052125239633554,
208,0,208,0,,,,,,,,,141.1208476999891,141.1208476999891,141.1208476999891,141.1208476999891,141.1208476999891,o,0.17301650004810654,141.31839049997507,141.31839049997507,141.7200562999933,141.7200562999933,,,,,,,2023-04-12_11h23.44.608,bandit task,2022.2.5,60.052125239633554,
209,0,209,0,,,,,,,,,141.7200562999933,141.7200562999933,141.7200562999933,141.7200562999933,141.7200562999933,o,0.2185040000185836,141.96805489997496,141.96805489997496,142.37071269997978,142.37071269997978,,,,,,,2023-04-12_11h23.44.608,bandit task,2022.2.5,60.052125239633554,
210,0,210,0,,,,,,,,,142.37071269997978,142.37071269997978,142.37071269997978,142.37071269997978,142.37071269997978,o,0.013090500026009977,142.4166957999987,142.4166957999987,,,,,,,,,2023-04-12_11h23.44.608,bandit task,2022.2.5,60.052125239633554,
211,0,211,0,,,,,,,,,142.81962769999518,142.81962769999518,142.81962769999518,142.81962769999518,142.81962769999518,o,0.10105610004393384,142.95123789997888,142.95123789997888,143.35235349999857,143.35235349999857,,,,,,,2023-04-12_11h23.44.608,bandit task,2022.2.5,60.052125239633554,
212,0,212,0,,,,,,,,,143.35235349999857,143.35235349999857,143.35235349999857,143.35235349999857,143.35235349999857,o,0.19659940002020448,143.56724799997755,143.56724799997755,143.96881239998038,143.96881239998038,,,,,,,2023-04-12_11h23.44.608,bandit task,2022.2.5,60.052125239633554,
213,0,213,0,,,,,,,,,143.96881239998038,143.96881239998038,143.96881239998038,143.96881239998038,143.96881239998038,o,0.15444100002059713,144.15082650000113,144.15082650000113,144.5514686999959,144.5514686999959,,,,,,,2023-04-12_11h23.44.608,bandit task,2022.2.5,60.052125239633554,
214,0,214,0,,,,,,,,,144.5514686999959,144.5514686999959,144.5514686999959,144.5514686999959,144.5514686999959,o,0.14868230003048666,144.7165564999741,144.7165564999741,145.11868069999036,145.11868069999036,,,,,,,2023-04-12_11h23.44.608,bandit task,2022.2.5,60.052125239633554,
215,0,215,0,,,,,,,,,145.11868069999036,145.11868069999036,145.11868069999036,145.11868069999036,145.11868069999036,o,0.3345590000390075,145.4828585999785,145.4828585999785,145.8847315000021,145.8847315000021,,,,,,,2023-04-12_11h23.44.608,bandit task,2022.2.5,60.052125239633554,
216,0,216,0,,,,,,,,,145.8847315000021,145.8847315000021,145.8847315000021,145.8847315000021,145.8847315000021,o,0.2070341000217013,146.11641919999965,146.11641919999965,146.5170655999973,146.5170655999973,,,,,,,2023-04-12_11h23.44.608,bandit task,2022.2.5,60.052125239633554,
217,0,217,0,,,,,,,,,146.5170655999973,146.5170655999973,146.5170655999973,146.5170655999973,146.5170655999973,o,0.21446760001708753,146.74893699999666,146.74893699999666,147.15114729999914,147.15114729999914,,,,,,,2023-04-12_11h23.44.608,bandit task,2022.2.5,60.052125239633554,
218,0,218,0,,,,,,,,,147.15114729999914,147.15114729999914,147.15114729999914,147.15114729999914,147.15114729999914,o,0.18481980002252385,147.36562119997689,147.36562119997689,147.76702439997462,147.76702439997462,,,,,,,2023-04-12_11h23.44.608,bandit task,2022.2.5,60.052125239633554,
219,0,219,0,,,,,,,,,147.76702439997462,147.76702439997462,147.76702439997462,147.76702439997462,147.76702439997462,o,0.17529720001039095,147.96555879997322,147.96555879997322,148.3667060000007,148.3667060000007,,,,,,,2023-04-12_11h23.44.608,bandit task,2022.2.5,60.052125239633554,
220,0,220,0,,,,,,,,,148.3667060000007,148.3667060000007,148.3667060000007,148.3667060000007,148.3667060000007,o,0.27549130003899336,148.66452029999346,148.66452029999346,149.06624980000197,149.06624980000197,,,,,,,2023-04-12_11h23.44.608,bandit task,2022.2.5,60.052125239633554,
221,0,221,0,,,,,,,,,149.06624980000197,149.06624980000197,149.06624980000197,149.06624980000197,149.06624980000197,o,0.1584957000450231,149.2476789999928,149.2476789999928,149.64887169998838,149.64887169998838,,,,,,,2023-04-12_11h23.44.608,bandit task,2022.2.5,60.052125239633554,
222,0,222,0,,,,,,,,,149.64887169998838,149.64887169998838,149.64887169998838,149.64887169998838,149.64887169998838,o,0.17733020000741817,149.86302920000162,149.86302920000162,,,,,,,,,2023-04-12_11h23.44.608,bandit task,2022.2.5,60.052125239633554,
223,0,223,0,,,,,,,,,150.26518170000054,150.26518170000054,150.26518170000054,150.26518170000054,150.26518170000054,o,0.1001327000267338,150.3802960999892,150.3802960999892,150.7829453999875,150.7829453999875,,,,,,,2023-04-12_11h23.44.608,bandit task,2022.2.5,60.052125239633554,
224,0,224,0,,,,,,,,,150.7829453999875,150.7829453999875,150.7829453999875,150.7829453999875,150.7829453999875,o,0.15763590001733974,150.97953659997438,150.97953659997438,,,,,,,,,2023-04-12_11h23.44.608,bandit task,2022.2.5,60.052125239633554,
225,0,225,0,,,,,,,,,151.3812986999983,151.3812986999983,151.3812986999983,151.3812986999983,151.3812986999983,p,0.11829170002602041,151.5304706999741,151.5304706999741,151.9313572999963,151.9313572999963,,,,,,,2023-04-12_11h23.44.608,bandit task,2022.2.5,60.052125239633554,
226,0,226,0,,,,,,,,,151.9313572999963,151.9313572999963,151.9313572999963,151.9313572999963,151.9313572999963,p,0.10276220002560876,152.06309159999364,152.06309159999364,152.46436829998856,152.46436829998856,,,,,,,2023-04-12_11h23.44.608,bandit task,2022.2.5,60.052125239633554,
227,0,227,0,,,,,,,,,152.46436829998856,152.46436829998856,152.46436829998856,152.46436829998856,152.46436829998856,p,0.12798830002429895,152.61252229998354,152.61252229998354,153.0142785999924,153.0142785999924,,,,,,,2023-04-12_11h23.44.608,bandit task,2022.2.5,60.052125239633554,
228,0,228,0,,,,,,,,,153.0142785999924,153.0142785999924,153.0142785999924,153.0142785999924,153.0142785999924,p,0.11230980002437718,153.14571819998673,153.14571819998673,153.5468286999967,153.5468286999967,,,,,,,2023-04-12_11h23.44.608,bandit task,2022.2.5,60.052125239633554,
229,0,229,0,,,,,,,,,153.5468286999967,153.5468286999967,153.5468286999967,153.5468286999967,153.5468286999967,p,0.19268040003953502,153.76207879997673,153.76207879997673,154.1633108999813,154.1633108999813,,,,,,,2023-04-12_11h23.44.608,bandit task,2022.2.5,60.052125239633554,
230,0,230,0,,,,,,,,,154.1633108999813,154.1633108999813,154.1633108999813,154.1633108999813,154.1633108999813,p,0.00712810002733022,154.19534539998858,154.19534539998858,154.5964280999906,154.5964280999906,,,,,,,2023-04-12_11h23.44.608,bandit task,2022.2.5,60.052125239633554,
231,0,231,0,,,,,,,,,154.5964280999906,154.5964280999906,154.5964280999906,154.5964280999906,154.5964280999906,p,0.2829496000194922,154.89615659997799,154.89615659997799,155.29671049999888,155.29671049999888,,,,,,,2023-04-12_11h23.44.608,bandit task,2022.2.5,60.052125239633554,
232,0,232,0,,,,,,,,,155.29671049999888,155.29671049999888,155.29671049999888,155.29671049999888,155.29671049999888,p,0.21289100003195927,155.528622599988,155.528622599988,155.9290970999864,155.9290970999864,,,,,,,2023-04-12_11h23.44.608,bandit task,2022.2.5,60.052125239633554,
233,0,233,0,,,,,,,,,155.9290970999864,155.9290970999864,155.9290970999864,155.9290970999864,155.9290970999864,p,0.20822990001761355,156.1763202000002,156.1763202000002,,,,,,,,,2023-04-12_11h23.44.608,bandit task,2022.2.5,60.052125239633554,
234,0,234,0,,,,,,,,,156.57957949998672,156.57957949998672,156.57957949998672,156.57957949998672,156.57957949998672,p,0.028015300049446523,156.627385699976,156.627385699976,157.02981529998942,157.02981529998942,,,,,,,2023-04-12_11h23.44.608,bandit task,2022.2.5,60.052125239633554,
235,0,235,0,,,,,,,,,157.02981529998942,157.02981529998942,157.02981529998942,157.02981529998942,157.02981529998942,p,0.2325931000232231,157.29357639999944,157.29357639999944,157.69560369997635,157.69560369997635,,,,,,,2023-04-12_11h23.44.608,bandit task,2022.2.5,60.052125239633554,
236,0,236,0,,,,,,,,,157.69560369997635,157.69560369997635,157.69560369997635,157.69560369997635,157.69560369997635,p,0.24512290002894588,157.95999979999033,157.95999979999033,158.3622082999791,158.3622082999791,,,,,,,2023-04-12_11h23.44.608,bandit task,2022.2.5,60.052125239633554,
237,0,237,0,,,,,,,,,158.3622082999791,158.3622082999791,158.3622082999791,158.3622082999791,158.3622082999791,p,0.1372172000410501,158.5422168999794,158.5422168999794,,,,,,,,,2023-04-12_11h23.44.608,bandit task,2022.2.5,60.052125239633554,
238,0,238,0,,,,,,,,,158.94504229997983,158.94504229997983,158.94504229997983,158.94504229997983,158.94504229997983,p,0.12389930002973415,159.0930405999825,159.0930405999825,159.49537879999843,159.49537879999843,,,,,,,2023-04-12_11h23.44.608,bandit task,2022.2.5,60.052125239633554,
239,0,239,0,,,,,,,,,159.49537879999843,159.49537879999843,159.49537879999843,159.49537879999843,159.49537879999843,w,0.20244890003232285,159.74142939999,159.74142939999,,,,,,,,,2023-04-12_11h23.44.608,bandit task,2022.2.5,60.052125239633554,
240,0,240,0,,,,,,,,,160.14375049999217,160.14375049999217,160.14375049999217,160.14375049999217,160.14375049999217,w,0.29334620002191514,160.4591452999739,160.4591452999739,160.85963479999918,160.85963479999918,,,,,,,2023-04-12_11h23.44.608,bandit task,2022.2.5,60.052125239633554,
241,0,241,0,,,,,,,,,160.85963479999918,160.85963479999918,160.85963479999918,160.85963479999918,160.85963479999918,w,0.4238995000196155,161.30800959997578,161.30800959997578,161.71027969999705,161.71027969999705,,,,,,,2023-04-12_11h23.44.608,bandit task,2022.2.5,60.052125239633554,
242,0,242,0,,,,,,,,,161.71027969999705,161.71027969999705,161.71027969999705,161.71027969999705,161.71027969999705,w,0.14409110002452508,161.87446539997472,161.87446539997472,162.27588029997423,162.27588029997423,,,,,,,2023-04-12_11h23.44.608,bandit task,2022.2.5,60.052125239633554,
243,0,243,0,,,,,,,,,162.27588029997423,162.27588029997423,162.27588029997423,162.27588029997423,162.27588029997423,w,0.14160210004774854,162.44107400000212,162.44107400000212,162.8420309999783,162.8420309999783,,,,,,,2023-04-12_11h23.44.608,bandit task,2022.2.5,60.052125239633554,
244,0,244,0,,,,,,,,,162.8420309999783,162.8420309999783,162.8420309999783,162.8420309999783,162.8420309999783,w,0.15861350001068786,163.02393850000226,163.02393850000226,163.4264952999947,163.4264952999947,,,,,,,2023-04-12_11h23.44.608,bandit task,2022.2.5,60.052125239633554,
245,0,245,0,,,,,,,,,163.4264952999947,163.4264952999947,163.4264952999947,163.4264952999947,163.4264952999947,w,0.1443602000363171,163.6057452999812,163.6057452999812,,,,,,,,,2023-04-12_11h23.44.608,bandit task,2022.2.5,60.052125239633554,
246,0,246,0,,,,,,,,,164.00870009997743,164.00870009997743,164.00870009997743,164.00870009997743,164.00870009997743,w,0.12017180005204864,164.1572416999843,164.1572416999843,164.55899130000034,164.55899130000034,,,,,,,2023-04-12_11h23.44.608,bandit task,2022.2.5,60.052125239633554,
247,0,247,0,,,,,,,,,164.55899130000034,164.55899130000034,164.55899130000034,164.55899130000034,164.55899130000034,w,0.18134470001677983,164.75657079997472,164.75657079997472,165.1586328999838,165.1586328999838,,,,,,,2023-04-12_11h23.44.608,bandit task,2022.2.5,60.052125239633554,
248,0,248,0,,,,,,,,,165.1586328999838,165.1586328999838,165.1586328999838,165.1586328999838,165.1586328999838,w,0.18780660003540106,165.37336529997992,165.37336529997992,165.77408889998333,165.77408889998333,,,,,,,2023-04-12_11h23.44.608,bandit task,2022.2.5,60.052125239633554,
249,0,249,0,,,,,,,,,165.77408889998333,165.77408889998333,165.77408889998333,165.77408889998333,165.77408889998333,w,0.1101848000253085,165.9075148999982,165.9075148999982,,,,,,,,,2023-04-12_11h23.44.608,bandit task,2022.2.5,60.052125239633554,
250,0,250,0,,,,,,,,,166.32560640000156,166.32560640000156,166.32560640000156,166.32560640000156,166.32560640000156,w,0.13178240004344843,166.489296499989,166.489296499989,166.89042719997815,166.89042719997815,,,,,,,2023-04-12_11h23.44.608,bandit task,2022.2.5,60.052125239633554,
251,0,251,0,,,,,,,,,166.89042719997815,166.89042719997815,166.89042719997815,166.89042719997815,166.89042719997815,w,0.1996565000154078,167.1058417999884,167.1058417999884,167.50785909997649,167.50785909997649,,,,,,,2023-04-12_11h23.44.608,bandit task,2022.2.5,60.052125239633554,
252,0,252,0,,,,,,,,,167.50785909997649,167.50785909997649,167.50785909997649,167.50785909997649,167.50785909997649,w,0.15644720001728274,167.68837329998496,167.68837329998496,168.0903536999831,168.0903536999831,,,,,,,2023-04-12_11h23.44.608,bandit task,2022.2.5,60.052125239633554,
253,0,253,0,,,,,,,,,168.0903536999831,168.0903536999831,168.0903536999831,168.0903536999831,168.0903536999831,w,0.18594320002011955,168.30460619999212,168.30460619999212,168.70583219997934,168.70583219997934,,,,,,,2023-04-12_11h23.44.608,bandit task,2022.2.5,60.052125239633554,
254,0,254,0,,,,,,,,,168.70583219997934,168.70583219997934,168.70583219997934,168.70583219997934,168.70583219997934,w,0.1130525000335183,168.83805120000034,168.83805120000034,169.23953849999816,169.23953849999816,,,,,,,2023-04-12_11h23.44.608,bandit task,2022.2.5,60.052125239633554,
255,0,255,0,,,,,,,,,169.23953849999816,169.23953849999816,169.23953849999816,169.23953849999816,169.23953849999816,w,0.17879800000810064,169.43778680000105,169.43778680000105,169.83867909997934,169.83867909997934,,,,,,,2023-04-12_11h23.44.608,bandit task,2022.2.5,60.052125239633554,
256,0,256,0,,,,,,,,,169.83867909997934,169.83867909997934,169.83867909997934,169.83867909997934,169.83867909997934,w,0.13436500003444962,170.00401949998923,170.00401949998923,170.4054935000022,170.4054935000022,,,,,,,2023-04-12_11h23.44.608,bandit task,2022.2.5,60.052125239633554,
257,0,257,0,,,,,,,,,170.4054935000022,170.4054935000022,170.4054935000022,170.4054935000022,170.4054935000022,w,0.153573800023878,170.58703149997746,170.58703149997746,170.98810749998665,170.98810749998665,,,,,,,2023-04-12_11h23.44.608,bandit task,2022.2.5,60.052125239633554,
258,0,258,0,,,,,,,,,170.98810749998665,170.98810749998665,170.98810749998665,170.98810749998665,170.98810749998665,w,0.1950667000201065,171.21904769999674,171.21904769999674,,,,,,,,,2023-04-12_11h23.44.608,bandit task,2022.2.5,60.052125239633554,
259,0,259,0,,,,,,,,,171.62221489998046,171.62221489998046,171.62221489998046,171.62221489998046,171.62221489998046,w,0.2690951000258792,171.93503339999006,171.93503339999006,,,,,,,,,2023-04-12_11h23.44.608,bandit task,2022.2.5,60.052125239633554,
260,0,260,0,,,,,,,,,172.33763649998582,172.33763649998582,172.33763649998582,172.33763649998582,172.33763649998582,w,0.2479981000360567,172.6185289999994,172.6185289999994,,,,,,,,,2023-04-12_11h23.44.608,bandit task,2022.2.5,60.052125239633554,
261,0,261,0,,,,,,,,,173.02168579999125,173.02168579999125,173.02168579999125,173.02168579999125,173.02168579999125,w,0.16486120002809912,173.21793029998662,173.21793029998662,,,,,,,,,2023-04-12_11h23.44.608,bandit task,2022.2.5,60.052125239633554,
262,0,262,0,,,,,,,,,173.62094480000087,173.62094480000087,173.62094480000087,173.62094480000087,173.62094480000087,w,0.14503240000340156,173.7857701999892,173.7857701999892,174.18716609998955,174.18716609998955,,,,,,,2023-04-12_11h23.44.608,bandit task,2022.2.5,60.052125239633554,
263,0,263,0,,,,,,,,,174.18716609998955,174.18716609998955,174.18716609998955,174.18716609998955,174.18716609998955,w,0.21222040001885034,174.43364049997763,174.43364049997763,,,,,,,,,2023-04-12_11h23.44.608,bandit task,2022.2.5,60.052125239633554,
264,0,264,0,,,,,,,,,174.83694049998303,174.83694049998303,174.83694049998303,174.83694049998303,174.83694049998303,w,0.20275240001501516,175.08363719997578,175.08363719997578,,,,,,,,,2023-04-12_11h23.44.608,bandit task,2022.2.5,60.052125239633554,
265,0,265,0,,,,,,,,,175.4868848999904,175.4868848999904,175.4868848999904,175.4868848999904,175.4868848999904,w,0.27816690001054667,175.7844838000019,175.7844838000019,176.185119199974,176.185119199974,,,,,,,2023-04-12_11h23.44.608,bandit task,2022.2.5,60.052125239633554,
266,0,266,0,,,,,,,,,176.185119199974,176.185119199974,176.185119199974,176.185119199974,176.185119199974,w,0.04135790001600981,176.25032039999496,176.25032039999496,176.65229659999022,176.65229659999022,,,,,,,2023-04-12_11h23.44.608,bandit task,2022.2.5,60.052125239633554,
267,0,267,0,,,,,,,,,176.65229659999022,176.65229659999022,176.65229659999022,176.65229659999022,176.65229659999022,w,0.22181580003234558,176.90045999997528,176.90045999997528,177.3013620999991,177.3013620999991,,,,,,,2023-04-12_11h23.44.608,bandit task,2022.2.5,60.052125239633554,
268,0,268,0,,,,,,,,,177.3013620999991,177.3013620999991,177.3013620999991,177.3013620999991,177.3013620999991,w,0.1458295000193175,177.4665686999797,177.4665686999797,177.86918599999626,177.86918599999626,,,,,,,2023-04-12_11h23.44.608,bandit task,2022.2.5,60.052125239633554,
269,0,269,0,,,,,,,,,177.86918599999626,177.86918599999626,177.86918599999626,177.86918599999626,177.86918599999626,w,0.2252579000487458,178.11644949999754,178.11644949999754,178.5181248000008,178.5181248000008,,,,,,,2023-04-12_11h23.44.608,bandit task,2022.2.5,60.052125239633554,
270,0,270,0,,,,,,,,,178.5181248000008,178.5181248000008,178.5181248000008,178.5181248000008,178.5181248000008,w,0.2711224000377115,178.8166501999949,178.8166501999949,179.2171582999872,179.2171582999872,,,,,,,2023-04-12_11h23.44.608,bandit task,2022.2.5,60.052125239633554,
271,0,271,0,,,,,,,,,179.2171582999872,179.2171582999872,179.2171582999872,179.2171582999872,179.2171582999872,w,0.20549660004326142,179.44952099997317,179.44952099997317,179.85056130000157,179.85056130000157,,,,,,,2023-04-12_11h23.44.608,bandit task,2022.2.5,60.052125239633554,
272,0,272,0,,,,,,,,,179.85056130000157,179.85056130000157,179.85056130000157,179.85056130000157,179.85056130000157,w,0.22945400001481175,180.10007519999635,180.10007519999635,,,,,,,,,2023-04-12_11h23.44.608,bandit task,2022.2.5,60.052125239633554,
273,0,273,0,,,,,,,,,180.51637549998122,180.51637549998122,180.51637549998122,180.51637549998122,180.51637549998122,w,0.20495260003372096,180.74831249998533,180.74831249998533,181.1503186999762,181.1503186999762,,,,,,,2023-04-12_11h23.44.608,bandit task,2022.2.5,60.052125239633554,
274,0,274,0,,,,,,,,,181.1503186999762,181.1503186999762,181.1503186999762,181.1503186999762,181.1503186999762,w,0.18309210002189502,181.36483949999092,181.36483949999092,181.76641009998275,181.76641009998275,,,,,,,2023-04-12_11h23.44.608,bandit task,2022.2.5,60.052125239633554,
275,0,275,0,,,,,,,,,181.76641009998275,181.76641009998275,181.76641009998275,181.76641009998275,181.76641009998275,w,0.1936190000269562,181.98085639998317,181.98085639998317,182.3821402999747,182.3821402999747,,,,,,,2023-04-12_11h23.44.608,bandit task,2022.2.5,60.052125239633554,
276,0,276,0,,,,,,,,,182.3821402999747,182.3821402999747,182.3821402999747,182.3821402999747,182.3821402999747,w,0.2370665000344161,182.64759319997393,182.64759319997393,183.04936659999657,183.04936659999657,,,,,,,2023-04-12_11h23.44.608,bandit task,2022.2.5,60.052125239633554,
277,0,277,0,,,,,,,,,183.04936659999657,183.04936659999657,183.04936659999657,183.04936659999657,183.04936659999657,w,0.2253700000292156,183.29677869999432,183.29677869999432,183.69821859998046,183.69821859998046,,,,,,,2023-04-12_11h23.44.608,bandit task,2022.2.5,60.052125239633554,
278,0,278,0,,,,,,,,,183.69821859998046,183.69821859998046,183.69821859998046,183.69821859998046,183.69821859998046,w,0.15020390000427142,183.86330359999556,183.86330359999556,184.26444049997372,184.26444049997372,,,,,,,2023-04-12_11h23.44.608,bandit task,2022.2.5,60.052125239633554,
279,0,279,0,,,,,,,,,184.26444049997372,184.26444049997372,184.26444049997372,184.26444049997372,184.26444049997372,w,0.16659140001866035,184.44660469997325,184.44660469997325,184.8487529999984,184.8487529999984,,,,,,,2023-04-12_11h23.44.608,bandit task,2022.2.5,60.052125239633554,
280,0,280,0,,,,,,,,,184.8487529999984,184.8487529999984,184.8487529999984,184.8487529999984,184.8487529999984,w,0.22538780004833825,185.0960189999896,185.0960189999896,185.49873399999342,185.49873399999342,,,,,,,2023-04-12_11h23.44.608,bandit task,2022.2.5,60.052125239633554,
281,0,281,0,,,,,,,,,185.49873399999342,185.49873399999342,185.49873399999342,185.49873399999342,185.49873399999342,w,0.21003360001486726,185.72957619998488,185.72957619998488,186.1304836999916,186.1304836999916,,,,,,,2023-04-12_11h23.44.608,bandit task,2022.2.5,60.052125239633554,
282,0,282,0,,,,,,,,,186.1304836999916,186.1304836999916,186.1304836999916,186.1304836999916,186.1304836999916,w,0.28415070002665743,186.44414879998658,186.44414879998658,,,,,,,,,2023-04-12_11h23.44.608,bandit task,2022.2.5,60.052125239633554,
283,0,283,0,,,,,,,,,186.8461995999969,186.8461995999969,186.8461995999969,186.8461995999969,186.8461995999969,w,0.2604871000221465,187.12853089999408,187.12853089999408,187.53095549999853,187.53095549999853,,,,,,,2023-04-12_11h23.44.608,bandit task,2022.2.5,60.052125239633554,
284,0,284,0,,,,,,,,,187.53095549999853,187.53095549999853,187.53095549999853,187.53095549999853,187.53095549999853,w,0.25731210003141314,187.8113548999827,187.8113548999827,188.21287540000048,188.21287540000048,,,,,,,2023-04-12_11h23.44.608,bandit task,2022.2.5,60.052125239633554,
285,0,285,0,,,,,,,,,188.21287540000048,188.21287540000048,188.21287540000048,188.21287540000048,188.21287540000048,w,0.27821500002755783,188.52699749998283,188.52699749998283,,,,,,,,,2023-04-12_11h23.44.608,bandit task,2022.2.5,60.052125239633554,
286,0,286,0,,,,,,,,,188.92979429999832,188.92979429999832,188.92979429999832,188.92979429999832,188.92979429999832,w,0.18001580002601258,189.12726119998842,189.12726119998842,189.52882310000132,189.52882310000132,,,,,,,2023-04-12_11h23.44.608,bandit task,2022.2.5,60.052125239633554,
287,0,287,0,,,,,,,,,189.52882310000132,189.52882310000132,189.52882310000132,189.52882310000132,189.52882310000132,w,0.28908350004348904,189.85899809998227,189.85899809998227,,,,,,,,,2023-04-12_11h23.44.608,bandit task,2022.2.5,60.052125239633554,
288,0,288,0,,,,,,,,,190.26201949999086,190.26201949999086,190.26201949999086,190.26201949999086,190.26201949999086,w,0.1673024000483565,190.47576919998392,190.47576919998392,,,,,,,,,2023-04-12_11h23.44.608,bandit task,2022.2.5,60.052125239633554,
289,0,289,0,,,,,,,,,190.8777970999945,190.8777970999945,190.8777970999945,190.8777970999945,190.8777970999945,w,0.1684005000279285,191.07678750000196,191.07678750000196,191.47823079998489,191.47823079998489,,,,,,,2023-04-12_11h23.44.608,bandit task,2022.2.5,60.052125239633554,
290,0,290,0,,,,,,,,,191.47823079998489,191.47823079998489,191.47823079998489,191.47823079998489,191.47823079998489,w,0.20189660001778975,191.70947739999974,191.70947739999974,192.11073989997385,192.11073989997385,,,,,,,2023-04-12_11h23.44.608,bandit task,2022.2.5,60.052125239633554,
291,0,291,0,,,,,,,,,192.11073989997385,192.11073989997385,192.11073989997385,192.11073989997385,192.11073989997385,w,0.1829779000254348,192.3089531000005,192.3089531000005,192.71109149997937,192.71109149997937,,,,,,,2023-04-12_11h23.44.608,bandit task,2022.2.5,60.052125239633554,
292,0,292,0,,,,,,,,,192.71109149997937,192.71109149997937,192.71109149997937,192.71109149997937,192.71109149997937,w,0.24233710000407882,192.97528339998098,192.97528339998098,193.37687219999498,193.37687219999498,,,,,,,2023-04-12_11h23.44.608,bandit task,2022.2.5,60.052125239633554,
293,0,293,0,,,,,,,,,193.37687219999498,193.37687219999498,193.37687219999498,193.37687219999498,193.37687219999498,w,0.25539330003084615,193.658721099986,193.658721099986,194.0593843999959,194.0593843999959,,,,,,,2023-04-12_11h23.44.608,bandit task,2022.2.5,60.052125239633554,
294,0,294,0,,,,,,,,,194.0593843999959,194.0593843999959,194.0593843999959,194.0593843999959,194.0593843999959,w,0.007054100016830489,194.09145729997545,194.09145729997545,194.49363599999924,194.49363599999924,,,,,,,2023-04-12_11h23.44.608,bandit task,2022.2.5,60.052125239633554,
295,0,295,0,,,,,,,,,194.49363599999924,194.49363599999924,194.49363599999924,194.49363599999924,194.49363599999924,w,0.22933740002918057,194.7568277999817,194.7568277999817,,,,,,,,,2023-04-12_11h23.44.608,bandit task,2022.2.5,60.052125239633554,
296,0,296,0,,,,,,,,,195.158895999979,195.158895999979,195.158895999979,195.158895999979,195.158895999979,w,0.134543800028041,195.32446340000024,195.32446340000024,195.72618149998016,195.72618149998016,,,,,,,2023-04-12_11h23.44.608,bandit task,2022.2.5,60.052125239633554,
297,0,297,0,,,,,,,,,195.72618149998016,195.72618149998016,195.72618149998016,195.72618149998016,195.72618149998016,w,0.1955599000211805,195.94084309999016,195.94084309999016,196.34176289997413,196.34176289997413,,,,,,,2023-04-12_11h23.44.608,bandit task,2022.2.5,60.052125239633554,
298,0,298,0,,,,,,,,,196.34176289997413,196.34176289997413,196.34176289997413,196.34176289997413,196.34176289997413,w,0.145205500011798,196.52303739998024,196.52303739998024,,,,,,,,,2023-04-12_11h23.44.608,bandit task,2022.2.5,60.052125239633554,
299,0,299,0,0,0,0,0,,,,,196.92616329999873,196.92616329999873,196.92616329999873,196.92616329999873,196.92616329999873,w,0.13655910003581084,197.09027389998664,197.09027389998664,197.4900226999889,197.4900226999889,197.4900226999889,197.4900226999889,space,1.4540404000435956,,,2023-04-12_11h23.44.608,bandit task,2022.2.5,60.052125239633554,
299,0,299,0,,,,,,,,,,,,,,,,,,,,,,,,,,2023-04-12_11h23.44.608,bandit task,2022.2.5,60.052125239633554,
300,0,300,0,,,,,,,,,198.9895851999754,198.9895851999754,198.9895851999754,198.9895851999754,198.9895851999754,p,0.8518604000273626,199.87229959998513,199.87229959998513,200.27314029997797,200.27314029997797,,,,,,,2023-04-12_11h23.44.608,bandit task,2022.2.5,60.052125239633554,
301,0,301,0,,,,,,,,,200.27314029997797,200.27314029997797,200.27314029997797,200.27314029997797,200.27314029997797,p,0.16805960005149245,200.47176590000163,200.47176590000163,200.873429499974,200.873429499974,,,,,,,2023-04-12_11h23.44.608,bandit task,2022.2.5,60.052125239633554,
302,0,302,0,,,,,,,,,200.873429499974,200.873429499974,200.873429499974,200.873429499974,200.873429499974,p,0.33166010002605617,201.22117239999352,201.22117239999352,201.62296369997784,201.62296369997784,,,,,,,2023-04-12_11h23.44.608,bandit task,2022.2.5,60.052125239633554,
303,0,303,0,,,,,,,,,201.62296369997784,201.62296369997784,201.62296369997784,201.62296369997784,201.62296369997784,p,0.10728560001007281,201.75482099998044,201.75482099998044,,,,,,,,,2023-04-12_11h23.44.608,bandit task,2022.2.5,60.052125239633554,
304,0,304,0,,,,,,,,,202.172233099991,202.172233099991,202.172233099991,202.172233099991,202.172233099991,p,0.04340210001100786,202.23760529997526,202.23760529997526,202.63865489998716,202.63865489998716,,,,,,,2023-04-12_11h23.44.608,bandit task,2022.2.5,60.052125239633554,
305,0,305,0,,,,,,,,,202.63865489998716,202.63865489998716,202.63865489998716,202.63865489998716,202.63865489998716,p,0.1258098000253085,202.78741639998043,202.78741639998043,203.18814519999432,203.18814519999432,,,,,,,2023-04-12_11h23.44.608,bandit task,2022.2.5,60.052125239633554,
306,0,306,0,,,,,,,,,203.18814519999432,203.18814519999432,203.18814519999432,203.18814519999432,203.18814519999432,p,0.1483925000356976,203.3534102999838,203.3534102999838,203.75535709998803,203.75535709998803,,,,,,,2023-04-12_11h23.44.608,bandit task,2022.2.5,60.052125239633554,
307,0,307,0,,,,,,,,,203.75535709998803,203.75535709998803,203.75535709998803,203.75535709998803,203.75535709998803,p,0.09624780004378408,203.88554299998214,203.88554299998214,,,,,,,,,2023-04-12_11h23.44.608,bandit task,2022.2.5,60.052125239633554,
308,0,308,0,,,,,,,,,204.28723449999234,204.28723449999234,204.28723449999234,204.28723449999234,204.28723449999234,p,0.09245850000297651,204.40291159998742,204.40291159998742,204.80400459998054,204.80400459998054,,,,,,,2023-04-12_11h23.44.608,bandit task,2022.2.5,60.052125239633554,
309,0,309,0,,,,,,,,,204.80400459998054,204.80400459998054,204.80400459998054,204.80400459998054,204.80400459998054,p,0.0861591000284534,204.91948379998212,204.91948379998212,205.32003869998152,205.32003869998152,,,,,,,2023-04-12_11h23.44.608,bandit task,2022.2.5,60.052125239633554,
310,0,310,0,,,,,,,,,205.32003869998152,205.32003869998152,205.32003869998152,205.32003869998152,205.32003869998152,p,0.12469680001959205,205.46958999999333,205.46958999999333,205.87047909997636,205.87047909997636,,,,,,,2023-04-12_11h23.44.608,bandit task,2022.2.5,60.052125239633554,
311,0,311,0,,,,,,,,,205.87047909997636,205.87047909997636,205.87047909997636,205.87047909997636,205.87047909997636,p,0.15507730000535958,206.05234789999668,206.05234789999668,206.45433809998212,206.45433809998212,,,,,,,2023-04-12_11h23.44.608,bandit task,2022.2.5,60.052125239633554,
312,0,312,0,,,,,,,,,206.45433809998212,206.45433809998212,206.45433809998212,206.45433809998212,206.45433809998212,p,0.15311930002644658,206.6354281999811,206.6354281999811,207.03755579999415,207.03755579999415,,,,,,,2023-04-12_11h23.44.608,bandit task,2022.2.5,60.052125239633554,
313,0,313,0,,,,,,,,,207.03755579999415,207.03755579999415,207.03755579999415,207.03755579999415,207.03755579999415,p,0.19654100001207553,207.25176729998202,207.25176729998202,207.65272779998486,207.65272779998486,,,,,,,2023-04-12_11h23.44.608,bandit task,2022.2.5,60.052125239633554,
314,0,314,0,,,,,,,,,207.65272779998486,207.65272779998486,207.65272779998486,207.65272779998486,207.65272779998486,p,0.1791827000270132,207.8510628999793,207.8510628999793,208.25213069998426,208.25213069998426,,,,,,,2023-04-12_11h23.44.608,bandit task,2022.2.5,60.052125239633554,
315,0,315,0,,,,,,,,,208.25213069998426,208.25213069998426,208.25213069998426,208.25213069998426,208.25213069998426,p,0.21014480001758784,208.4841294999933,208.4841294999933,208.88533459999599,208.88533459999599,,,,,,,2023-04-12_11h23.44.608,bandit task,2022.2.5,60.052125239633554,
316,0,316,0,,,,,,,,,208.88533459999599,208.88533459999599,208.88533459999599,208.88533459999599,208.88533459999599,p,0.12268400003085844,209.03440949998912,209.03440949998912,209.4362572999962,209.4362572999962,,,,,,,2023-04-12_11h23.44.608,bandit task,2022.2.5,60.052125239633554,
317,0,317,0,,,,,,,,,209.4362572999962,209.4362572999962,209.4362572999962,209.4362572999962,209.4362572999962,p,0.21389060001820326,209.68230079999194,209.68230079999194,,,,,,,,,2023-04-12_11h23.44.608,bandit task,2022.2.5,60.052125239633554,
318,0,318,0,,,,,,,,,210.0855612999876,210.0855612999876,210.0855612999876,210.0855612999876,210.0855612999876,p,0.1668826000241097,210.2834713999764,210.2834713999764,210.68421889998717,210.68421889998717,,,,,,,2023-04-12_11h23.44.608,bandit task,2022.2.5,60.052125239633554,
319,0,319,0,,,,,,,,,210.68421889998717,210.68421889998717,210.68421889998717,210.68421889998717,210.68421889998717,p,0.27311800004099496,210.9830488000007,210.9830488000007,211.38387569997576,211.38387569997576,,,,,,,2023-04-12_11h23.44.608,bandit task,2022.2.5,60.052125239633554,
320,0,320,0,,,,,,,,,211.38387569997576,211.38387569997576,211.38387569997576,211.38387569997576,211.38387569997576,p,0.1374303000047803,211.54929959998117,211.54929959998117,211.9499974999926,211.9499974999926,,,,,,,2023-04-12_11h23.44.608,bandit task,2022.2.5,60.052125239633554,
321,0,321,0,,,,,,,,,211.9499974999926,211.9499974999926,211.9499974999926,211.9499974999926,211.9499974999926,p,1.1113471000280697,213.08183299997472,213.08183299997472,213.48307579997345,213.48307579997345,,,,,,,2023-04-12_11h23.44.608,bandit task,2022.2.5,60.052125239633554,
322,0,322,0,,,,,,,,,213.48307579997345,213.48307579997345,213.48307579997345,213.48307579997345,213.48307579997345,p,0.23287710000295192,213.7466892999946,213.7466892999946,,,,,,,,,2023-04-12_11h23.44.608,bandit task,2022.2.5,60.052125239633554,
323,0,323,0,,,,,,,,,214.14926399997785,214.14926399997785,214.14926399997785,214.14926399997785,214.14926399997785,p,0.2790447000297718,214.46323659998598,214.46323659998598,,,,,,,,,2023-04-12_11h23.44.608,bandit task,2022.2.5,60.052125239633554,
324,0,324,0,,,,,,,,,214.86593179998454,214.86593179998454,214.86593179998454,214.86593179998454,214.86593179998454,p,1.216255800012732,216.09706959998584,216.09706959998584,216.49830389997805,216.49830389997805,,,,,,,2023-04-12_11h23.44.608,bandit task,2022.2.5,60.052125239633554,
325,0,325,0,,,,,,,,,216.49830389997805,216.49830389997805,216.49830389997805,216.49830389997805,216.49830389997805,p,0.13498790003359318,216.66333659997326,216.66333659997326,217.06508899998153,217.06508899998153,,,,,,,2023-04-12_11h23.44.608,bandit task,2022.2.5,60.052125239633554,
326,0,326,0,,,,,,,,,217.06508899998153,217.06508899998153,217.06508899998153,217.06508899998153,217.06508899998153,p,0.16340790002141148,217.24607239998295,217.24607239998295,217.64732869999716,217.64732869999716,,,,,,,2023-04-12_11h23.44.608,bandit task,2022.2.5,60.052125239633554,
327,0,327,0,,,,,,,,,217.64732869999716,217.64732869999716,217.64732869999716,217.64732869999716,217.64732869999716,p,0.1335817000363022,217.79606019999483,217.79606019999483,218.19718729998567,218.19718729998567,,,,,,,2023-04-12_11h23.44.608,bandit task,2022.2.5,60.052125239633554,
328,0,328,0,,,,,,,,,218.19718729998567,218.19718729998567,218.19718729998567,218.19718729998567,218.19718729998567,p,0.21757540001999587,218.4459838999901,218.4459838999901,218.84760589999496,218.84760589999496,,,,,,,2023-04-12_11h23.44.608,bandit task,2022.2.5,60.052125239633554,
329,0,329,0,,,,,,,,,218.84760589999496,218.84760589999496,218.84760589999496,218.84760589999496,218.84760589999496,p,0.12575370003469288,218.997009099985,218.997009099985,,,,,,,,,2023-04-12_11h23.44.608,bandit task,2022.2.5,60.052125239633554,
330,0,330,0,,,,,,,,,219.4132425999851,219.4132425999851,219.4132425999851,219.4132425999851,219.4132425999851,p,0.15248600000631995,219.59512399998493,219.59512399998493,219.99654019999434,219.99654019999434,,,,,,,2023-04-12_11h23.44.608,bandit task,2022.2.5,60.052125239633554,
331,0,331,0,,,,,,,,,219.99654019999434,219.99654019999434,219.99654019999434,219.99654019999434,219.99654019999434,p,0.1841351000184659,220.21149940000032,220.21149940000032,220.6127567999938,220.6127567999938,,,,,,,2023-04-12_11h23.44.608,bandit task,2022.2.5,60.052125239633554,
332,0,332,0,,,,,,,,,220.6127567999938,220.6127567999938,220.6127567999938,220.6127567999938,220.6127567999938,p,0.1279274000262376,220.7613867999753,220.7613867999753,221.16303929997957,221.16303929997957,,,,,,,2023-04-12_11h23.44.608,bandit task,2022.2.5,60.052125239633554,
333,0,333,0,,,,,,,,,221.16303929997957,221.16303929997957,221.16303929997957,221.16303929997957,221.16303929997957,p,0.1861036000191234,221.3773631999793,221.3773631999793,221.77939539999352,221.77939539999352,,,,,,,2023-04-12_11h23.44.608,bandit task,2022.2.5,60.052125239633554,
334,0,334,0,,,,,,,,,221.77939539999352,221.77939539999352,221.77939539999352,221.77939539999352,221.77939539999352,p,0.15174020003178157,221.96039689998724,221.96039689998724,222.36179349999293,222.36179349999293,,,,,,,2023-04-12_11h23.44.608,bandit task,2022.2.5,60.052125239633554,
335,0,335,0,,,,,,,,,222.36179349999293,222.36179349999293,222.36179349999293,222.36179349999293,222.36179349999293,p,0.14599800002179109,222.52664499997627,222.52664499997627,222.92851369999698,222.92851369999698,,,,,,,2023-04-12_11h23.44.608,bandit task,2022.2.5,60.052125239633554,
336,0,336,0,,,,,,,,,222.92851369999698,222.92851369999698,222.92851369999698,222.92851369999698,222.92851369999698,p,0.1959156000521034,223.1433798999933,223.1433798999933,223.5445342999883,223.5445342999883,,,,,,,2023-04-12_11h23.44.608,bandit task,2022.2.5,60.052125239633554,
337,0,337,0,,,,,,,,,223.5445342999883,223.5445342999883,223.5445342999883,223.5445342999883,223.5445342999883,p,0.16237470001215115,223.72623709999607,223.72623709999607,224.12794439998106,224.12794439998106,,,,,,,2023-04-12_11h23.44.608,bandit task,2022.2.5,60.052125239633554,
338,0,338,0,,,,,,,,,224.12794439998106,224.12794439998106,224.12794439998106,224.12794439998106,224.12794439998106,p,0.16120460000820458,224.30918729997938,224.30918729997938,224.7104616999859,224.7104616999859,,,,,,,2023-04-12_11h23.44.608,bandit task,2022.2.5,60.052125239633554,
339,0,339,0,,,,,,,,,224.7104616999859,224.7104616999859,224.7104616999859,224.7104616999859,224.7104616999859,p,0.19262720001279376,224.9257152999926,224.9257152999926,225.3267671999929,225.3267671999929,,,,,,,2023-04-12_11h23.44.608,bandit task,2022.2.5,60.052125239633554,
340,0,340,0,,,,,,,,,225.3267671999929,225.3267671999929,225.3267671999929,225.3267671999929,225.3267671999929,p,0.1831629000371322,225.5253913999768,225.5253913999768,225.92722349998076,225.92722349998076,,,,,,,2023-04-12_11h23.44.608,bandit task,2022.2.5,60.052125239633554,
341,0,341,0,,,,,,,,,225.92722349998076,225.92722349998076,225.92722349998076,225.92722349998076,225.92722349998076,p,0.1485503000440076,226.09263169998303,226.09263169998303,,,,,,,,,2023-04-12_11h23.44.608,bandit task,2022.2.5,60.052125239633554,
342,0,342,0,,,,,,,,,226.5097844999982,226.5097844999982,226.5097844999982,226.5097844999982,226.5097844999982,p,0.08531460002996027,226.625132199988,226.625132199988,227.0268127999734,227.0268127999734,,,,,,,2023-04-12_11h23.44.608,bandit task,2022.2.5,60.052125239633554,
343,0,343,0,,,,,,,,,227.0268127999734,227.0268127999734,227.0268127999734,227.0268127999734,227.0268127999734,p,0.09804320000694133,227.1566896000004,227.1566896000004,,,,,,,,,2023-04-12_11h23.44.608,bandit task,2022.2.5,60.052125239633554,
344,0,344,0,,,,,,,,,227.56057359999977,227.56057359999977,227.56057359999977,227.56057359999977,227.56057359999977,p,0.08756270003505051,227.68959039999754,227.68959039999754,,,,,,,,,2023-04-12_11h23.44.608,bandit task,2022.2.5,60.052125239633554,
345,0,345,0,,,,,,,,,228.09260889998404,228.09260889998404,228.09260889998404,228.09260889998404,228.09260889998404,p,0.08569090001401491,228.22294099998544,228.22294099998544,,,,,,,,,2023-04-12_11h23.44.608,bandit task,2022.2.5,60.052125239633554,
346,0,346,0,,,,,,,,,228.62583069998072,228.62583069998072,228.62583069998072,228.62583069998072,228.62583069998072,p,0.07764520001364872,228.724258000002,228.724258000002,229.12479309999617,229.12479309999617,,,,,,,2023-04-12_11h23.44.608,bandit task,2022.2.5,60.052125239633554,
347,0,347,0,,,,,,,,,229.12479309999617,229.12479309999617,229.12479309999617,229.12479309999617,229.12479309999617,p,0.17141760003869422,229.3236784999899,229.3236784999899,229.72493579998263,229.72493579998263,,,,,,,2023-04-12_11h23.44.608,bandit task,2022.2.5,60.052125239633554,
348,0,348,0,,,,,,,,,229.72493579998263,229.72493579998263,229.72493579998263,229.72493579998263,229.72493579998263,p,0.06712340004742146,229.82313589999103,229.82313589999103,230.22502249997342,230.22502249997342,,,,,,,2023-04-12_11h23.44.608,bandit task,2022.2.5,60.052125239633554,
349,0,349,0,,,,,,,,,230.22502249997342,230.22502249997342,230.22502249997342,230.22502249997342,230.22502249997342,p,0.03551130002597347,230.28939169997466,230.28939169997466,230.69206019997364,230.69206019997364,,,,,,,2023-04-12_11h23.44.608,bandit task,2022.2.5,60.052125239633554,
350,0,350,0,,,,,,,,,230.69206019997364,230.69206019997364,230.69206019997364,230.69206019997364,230.69206019997364,p,0.05937540001468733,230.78819819999626,230.78819819999626,,,,,,,,,2023-04-12_11h23.44.608,bandit task,2022.2.5,60.052125239633554,
351,0,351,0,,,,,,,,,231.19107269999222,231.19107269999222,231.19107269999222,231.19107269999222,231.19107269999222,p,0.03114480004296638,231.23969679998117,231.23969679998117,231.640751799976,231.640751799976,,,,,,,2023-04-12_11h23.44.608,bandit task,2022.2.5,60.052125239633554,
352,0,352,0,,,,,,,,,231.640751799976,231.640751799976,231.640751799976,231.640751799976,231.640751799976,p,0.06299440003931522,231.7228507999971,231.7228507999971,232.12374640000053,232.12374640000053,,,,,,,2023-04-12_11h23.44.608,bandit task,2022.2.5,60.052125239633554,
353,0,353,0,,,,,,,,,232.12374640000053,232.12374640000053,232.12374640000053,232.12374640000053,232.12374640000053,p,0.024832100025378168,232.1724927999894,232.1724927999894,232.5736890999833,232.5736890999833,,,,,,,2023-04-12_11h23.44.608,bandit task,2022.2.5,60.052125239633554,
354,0,354,0,,,,,,,,,232.5736890999833,232.5736890999833,232.5736890999833,232.5736890999833,232.5736890999833,p,0.056330100022023544,232.65509600000223,232.65509600000223,233.05584649997763,233.05584649997763,,,,,,,2023-04-12_11h23.44.608,bandit task,2022.2.5,60.052125239633554,
355,0,355,0,,,,,,,,,233.05584649997763,233.05584649997763,233.05584649997763,233.05584649997763,233.05584649997763,p,0.12732590004452504,233.20524389998172,233.20524389998172,233.60675369997625,233.60675369997625,,,,,,,2023-04-12_11h23.44.608,bandit task,2022.2.5,60.052125239633554,
,,,,,,,,,,,,233.60675369997625,233.60675369997625,233.60675369997625,233.60675369997625,233.60675369997625,p,0.0008830000297166407,233.6223930999986,233.6223930999986,,,,,,,,,,,,,
