utrials.thisRepN,utrials.thisTrialN,utrials.thisN,utrials.thisIndex,trials_2.thisRepN,trials_2.thisTrialN,trials_2.thisN,trials_2.thisIndex,trials.thisRepN,trials.thisTrialN,trials.thisN,trials.thisIndex,trials_3.thisRepN,trials_3.thisTrialN,trials_3.thisN,trials_3.thisIndex,uIntrotext.started,uenter_resp.started,uenter_resp.keys,uenter_resp.rt,ukey_resp.started,Q.started,W.started,O.started,P.started,ukey_resp.keys,ukey_resp.rt,smly.started,text_3.started,smly.stopped,text_3.stopped,text.started,enterresp.started,enterresp.keys,enterresp.rt,Optionq.started,optionw.started,optiono.started,Optionp.started,key_resp.started,Ql.started,Wl.started,Ol.started,Pl.started,key_resp.keys,key_resp.rt,sadl.started,sadl.stopped,smlyl.started,text_2.started,smlyl.stopped,text_2.stopped,Optionq.stopped,optionw.stopped,optiono.stopped,Optionp.stopped,key_resp.stopped,Ql.stopped,Wl.stopped,Ol.stopped,Pl.stopped,text_4.started,Roll Number,Name,date,expName,psychopyVersion,frameRate,
,,,,,,,,,,,,,,,,23.823876700131223,23.823876700131223,space,0.5187840999569744,,,,,,,,,,,,,,,,,,,,,,,,,,,,,,,,,,,,,,,,,,,121dsfdsf,dsfsd,2023-04-12_21h16.23.720,bandit task,2022.2.5,143.85032662461768,
0,0,0,0,,,,,,,,,,,,,,,,,24.37940190010704,24.37940190010704,24.37940190010704,24.37940190010704,24.37940190010704,q,0.6062230998650193,24.99880679999478,24.99880679999478,,,,,,,,,,,,,,,,,,,,,,,,,,,,,,,,,,121dsfdsf,dsfsd,2023-04-12_21h16.23.720,bandit task,2022.2.5,143.85032662461768,
1,0,1,0,,,,,,,,,,,,,,,,,25.405473800143227,25.405473800143227,25.405473800143227,25.405473800143227,25.405473800143227,o,0.27890289993956685,25.697989700129256,25.697989700129256,26.10042710020207,26.10042710020207,,,,,,,,,,,,,,,,,,,,,,,,,,,,,,,,121dsfdsf,dsfsd,2023-04-12_21h16.23.720,bandit task,2022.2.5,143.85032662461768,
2,0,2,0,,,,,,,,,,,,,,,,,26.10042710020207,26.10042710020207,26.10042710020207,26.10042710020207,26.10042710020207,p,0.25648849993012846,26.363381900126114,26.363381900126114,26.76650740019977,26.76650740019977,,,,,,,,,,,,,,,,,,,,,,,,,,,,,,,,121dsfdsf,dsfsd,2023-04-12_21h16.23.720,bandit task,2022.2.5,143.85032662461768,
3,0,3,0,,,,,,,,,,,,,,,,,26.76650740019977,26.76650740019977,26.76650740019977,26.76650740019977,26.76650740019977,q,0.2526645998004824,27.029921000124887,27.029921000124887,27.433235100004822,27.433235100004822,,,,,,,,,,,,,,,,,,,,,,,,,,,,,,,,121dsfdsf,dsfsd,2023-04-12_21h16.23.720,bandit task,2022.2.5,143.85032662461768,
4,0,4,0,,,,,,,,,,,,,,,,,27.433235100004822,27.433235100004822,27.433235100004822,27.433235100004822,27.433235100004822,q,0.22711909981444478,27.668434100225568,27.668434100225568,28.071925200056285,28.071925200056285,,,,,,,,,,,,,,,,,,,,,,,,,,,,,,,,121dsfdsf,dsfsd,2023-04-12_21h16.23.720,bandit task,2022.2.5,143.85032662461768,
5,0,5,0,,,,,,,,,,,,,,,,,28.071925200056285,28.071925200056285,28.071925200056285,28.071925200056285,28.071925200056285,q,0.2549091998953372,28.33680780022405,28.33680780022405,28.73878480005078,28.73878480005078,,,,,,,,,,,,,,,,,,,,,,,,,,,,,,,,121dsfdsf,dsfsd,2023-04-12_21h16.23.720,bandit task,2022.2.5,143.85032662461768,
6,0,6,0,,,,,,,,,,,,,,,,,28.73878480005078,28.73878480005078,28.73878480005078,28.73878480005078,28.73878480005078,q,0.2636400999035686,29.00923530012369,29.00923530012369,29.41227940004319,29.41227940004319,,,,,,,,,,,,,,,,,,,,,,,,,,,,,,,,121dsfdsf,dsfsd,2023-04-12_21h16.23.720,bandit task,2022.2.5,143.85032662461768,
7,0,7,0,,,,,,,,,,,,,,,,,29.41227940004319,29.41227940004319,29.41227940004319,29.41227940004319,29.41227940004319,p,0.2358192999381572,29.654953200137243,29.654953200137243,,,,,,,,,,,,,,,,,,,,,,,,,,,,,,,,,,121dsfdsf,dsfsd,2023-04-12_21h16.23.720,bandit task,2022.2.5,143.85032662461768,
8,0,8,0,,,,,,,,,,,,,,,,,30.058217100100592,30.058217100100592,30.058217100100592,30.058217100100592,30.058217100100592,p,0.26369729987345636,30.327364900149405,30.327364900149405,30.731669100001454,30.731669100001454,,,,,,,,,,,,,,,,,,,,,,,,,,,,,,,,121dsfdsf,dsfsd,2023-04-12_21h16.23.720,bandit task,2022.2.5,143.85032662461768,
9,0,9,0,,,,,,,,,,,,,,,,,30.731669100001454,30.731669100001454,30.731669100001454,30.731669100001454,30.731669100001454,p,0.20616539986804128,30.946046200115234,30.946046200115234,31.34964880021289,31.34964880021289,,,,,,,,,,,,,,,,,,,,,,,,,,,,,,,,121dsfdsf,dsfsd,2023-04-12_21h16.23.720,bandit task,2022.2.5,143.85032662461768,
10,0,10,0,,,,,,,,,,,,,,,,,31.34964880021289,31.34964880021289,31.34964880021289,31.34964880021289,31.34964880021289,p,0.19256009976379573,31.549799300031736,31.549799300031736,31.953919700114056,31.953919700114056,,,,,,,,,,,,,,,,,,,,,,,,,,,,,,,,121dsfdsf,dsfsd,2023-04-12_21h16.23.720,bandit task,2022.2.5,143.85032662461768,
11,0,11,0,,,,,,,,,,,,,,,,,31.953919700114056,31.953919700114056,31.953919700114056,31.953919700114056,31.953919700114056,q,0.22329630004242063,32.18934850022197,32.18934850022197,32.5926911002025,32.5926911002025,,,,,,,,,,,,,,,,,,,,,,,,,,,,,,,,121dsfdsf,dsfsd,2023-04-12_21h16.23.720,bandit task,2022.2.5,143.85032662461768,
12,0,12,0,,,,,,,,,,,,,,,,,32.5926911002025,32.5926911002025,32.5926911002025,32.5926911002025,32.5926911002025,q,0.15939909988082945,32.75870300014503,32.75870300014503,33.162176500074565,33.162176500074565,,,,,,,,,,,,,,,,,,,,,,,,,,,,,,,,121dsfdsf,dsfsd,2023-04-12_21h16.23.720,bandit task,2022.2.5,143.85032662461768,
13,0,13,0,,,,,,,,,,,,,,,,,33.162176500074565,33.162176500074565,33.162176500074565,33.162176500074565,33.162176500074565,q,0.2009962999727577,33.36908120010048,33.36908120010048,33.773527700221166,33.773527700221166,,,,,,,,,,,,,,,,,,,,,,,,,,,,,,,,121dsfdsf,dsfsd,2023-04-12_21h16.23.720,bandit task,2022.2.5,143.85032662461768,
14,0,14,0,,,,,,,,,,,,,,,,,33.773527700221166,33.773527700221166,33.773527700221166,33.773527700221166,33.773527700221166,q,0.15224679978564382,33.933705100091174,33.933705100091174,34.33603770006448,34.33603770006448,,,,,,,,,,,,,,,,,,,,,,,,,,,,,,,,121dsfdsf,dsfsd,2023-04-12_21h16.23.720,bandit task,2022.2.5,143.85032662461768,
15,0,15,0,,,,,,,,,,,,,,,,,34.33603770006448,34.33603770006448,34.33603770006448,34.33603770006448,34.33603770006448,p,0.14787649968639016,34.49378860020079,34.49378860020079,34.898354900069535,34.898354900069535,,,,,,,,,,,,,,,,,,,,,,,,,,,,,,,,121dsfdsf,dsfsd,2023-04-12_21h16.23.720,bandit task,2022.2.5,143.85032662461768,
16,0,16,0,,,,,,,,,,,,,,,,,34.898354900069535,34.898354900069535,34.898354900069535,34.898354900069535,34.898354900069535,p,0.16155439987778664,35.071254200069234,35.071254200069234,35.474586200201884,35.474586200201884,,,,,,,,,,,,,,,,,,,,,,,,,,,,,,,,121dsfdsf,dsfsd,2023-04-12_21h16.23.720,bandit task,2022.2.5,143.85032662461768,
17,0,17,0,,,,,,,,,,,,,,,,,35.474586200201884,35.474586200201884,35.474586200201884,35.474586200201884,35.474586200201884,p,0.11223849980160594,35.59900620020926,35.59900620020926,36.00294650020078,36.00294650020078,,,,,,,,,,,,,,,,,,,,,,,,,,,,,,,,121dsfdsf,dsfsd,2023-04-12_21h16.23.720,bandit task,2022.2.5,143.85032662461768,
18,0,18,0,,,,,,,,,,,,,,,,,36.00294650020078,36.00294650020078,36.00294650020078,36.00294650020078,36.00294650020078,p,0.14023239980451763,36.153142700204626,36.153142700204626,36.55806960002519,36.55806960002519,,,,,,,,,,,,,,,,,,,,,,,,,,,,,,,,121dsfdsf,dsfsd,2023-04-12_21h16.23.720,bandit task,2022.2.5,143.85032662461768,
19,0,19,0,,,,,,,,,,,,,,,,,36.55806960002519,36.55806960002519,36.55806960002519,36.55806960002519,36.55806960002519,p,0.12552009988576174,36.695097899995744,36.695097899995744,37.09976500016637,37.09976500016637,,,,,,,,,,,,,,,,,,,,,,,,,,,,,,,,121dsfdsf,dsfsd,2023-04-12_21h16.23.720,bandit task,2022.2.5,143.85032662461768,
20,0,20,0,,,,,,,,,,,,,,,,,37.09976500016637,37.09976500016637,37.09976500016637,37.09976500016637,37.09976500016637,q,0.13993599987588823,37.25031170016155,37.25031170016155,37.65528660011478,37.65528660011478,,,,,,,,,,,,,,,,,,,,,,,,,,,,,,,,121dsfdsf,dsfsd,2023-04-12_21h16.23.720,bandit task,2022.2.5,143.85032662461768,
21,0,21,0,,,,,,,,,,,,,,,,,37.65528660011478,37.65528660011478,37.65528660011478,37.65528660011478,37.65528660011478,q,0.16784149990417063,37.834574800217524,37.834574800217524,38.238754000049084,38.238754000049084,,,,,,,,,,,,,,,,,,,,,,,,,,,,,,,,121dsfdsf,dsfsd,2023-04-12_21h16.23.720,bandit task,2022.2.5,143.85032662461768,
22,0,22,0,,,,,,,,,,,,,,,,,38.238754000049084,38.238754000049084,38.238754000049084,38.238754000049084,38.238754000049084,q,0.12467249971814454,38.36908740014769,38.36908740014769,38.77328780014068,38.77328780014068,,,,,,,,,,,,,,,,,,,,,,,,,,,,,,,,121dsfdsf,dsfsd,2023-04-12_21h16.23.720,bandit task,2022.2.5,143.85032662461768,
23,0,23,0,,,,,,,,,,,,,,,,,38.77328780014068,38.77328780014068,38.77328780014068,38.77328780014068,38.77328780014068,q,0.10458499984815717,38.88408139999956,38.88408139999956,39.28758790018037,39.28758790018037,,,,,,,,,,,,,,,,,,,,,,,,,,,,,,,,121dsfdsf,dsfsd,2023-04-12_21h16.23.720,bandit task,2022.2.5,143.85032662461768,
24,0,24,0,,,,,,,,,,,,,,,,,39.28758790018037,39.28758790018037,39.28758790018037,39.28758790018037,39.28758790018037,q,0.09559309994801879,39.39002460008487,39.39002460008487,39.79435580014251,39.79435580014251,,,,,,,,,,,,,,,,,,,,,,,,,,,,,,,,121dsfdsf,dsfsd,2023-04-12_21h16.23.720,bandit task,2022.2.5,143.85032662461768,
25,0,25,0,,,,,,,,,,,,,,,,,39.79435580014251,39.79435580014251,39.79435580014251,39.79435580014251,39.79435580014251,p,0.06067929998971522,39.8638513002079,39.8638513002079,40.26659570005722,40.26659570005722,,,,,,,,,,,,,,,,,,,,,,,,,,,,,,,,121dsfdsf,dsfsd,2023-04-12_21h16.23.720,bandit task,2022.2.5,143.85032662461768,
26,0,26,0,,,,,,,,,,,,,,,,,40.26659570005722,40.26659570005722,40.26659570005722,40.26659570005722,40.26659570005722,q,0.15928280004300177,40.43296910007484,40.43296910007484,40.83647400001064,40.83647400001064,,,,,,,,,,,,,,,,,,,,,,,,,,,,,,,,121dsfdsf,dsfsd,2023-04-12_21h16.23.720,bandit task,2022.2.5,143.85032662461768,
27,0,27,0,,,,,,,,,,,,,,,,,40.83647400001064,40.83647400001064,40.83647400001064,40.83647400001064,40.83647400001064,p,0.09780869982205331,40.94522490003146,40.94522490003146,41.34963510022499,41.34963510022499,,,,,,,,,,,,,,,,,,,,,,,,,,,,,,,,121dsfdsf,dsfsd,2023-04-12_21h16.23.720,bandit task,2022.2.5,143.85032662461768,
28,0,28,0,,,,,,,,,,,,,,,,,41.34963510022499,41.34963510022499,41.34963510022499,41.34963510022499,41.34963510022499,q,0.09184119990095496,41.453714300179854,41.453714300179854,41.856729600112885,41.856729600112885,,,,,,,,,,,,,,,,,,,,,,,,,,,,,,,,121dsfdsf,dsfsd,2023-04-12_21h16.23.720,bandit task,2022.2.5,143.85032662461768,
29,0,29,0,,,,,,,,,,,,,,,,,41.856729600112885,41.856729600112885,41.856729600112885,41.856729600112885,41.856729600112885,p,0.08025329979136586,41.94596630008891,41.94596630008891,42.349465700099245,42.349465700099245,,,,,,,,,,,,,,,,,,,,,,,,,,,,,,,,121dsfdsf,dsfsd,2023-04-12_21h16.23.720,bandit task,2022.2.5,143.85032662461768,
30,0,30,0,,,,,,,,,,,,,,,,,42.349465700099245,42.349465700099245,42.349465700099245,42.349465700099245,42.349465700099245,q,0.0716130998916924,42.43105860007927,42.43105860007927,42.83590689999983,42.83590689999983,,,,,,,,,,,,,,,,,,,,,,,,,,,,,,,,121dsfdsf,dsfsd,2023-04-12_21h16.23.720,bandit task,2022.2.5,143.85032662461768,
31,0,31,0,,,,,,,,,,,,,,,,,42.83590689999983,42.83590689999983,42.83590689999983,42.83590689999983,42.83590689999983,o,0.12488649995066226,42.96645430009812,42.96645430009812,43.37076070019975,43.37076070019975,,,,,,,,,,,,,,,,,,,,,,,,,,,,,,,,121dsfdsf,dsfsd,2023-04-12_21h16.23.720,bandit task,2022.2.5,143.85032662461768,
32,0,32,0,,,,,,,,,,,,,,,,,43.37076070019975,43.37076070019975,43.37076070019975,43.37076070019975,43.37076070019975,p,0.04009489994496107,43.41808900004253,43.41808900004253,43.82188910013065,43.82188910013065,,,,,,,,,,,,,,,,,,,,,,,,,,,,,,,,121dsfdsf,dsfsd,2023-04-12_21h16.23.720,bandit task,2022.2.5,143.85032662461768,
33,0,33,0,,,,,,,,,,,,,,,,,43.82188910013065,43.82188910013065,43.82188910013065,43.82188910013065,43.82188910013065,p,0.10360060003586113,43.930845900205895,43.930845900205895,44.33634600020014,44.33634600020014,,,,,,,,,,,,,,,,,,,,,,,,,,,,,,,,121dsfdsf,dsfsd,2023-04-12_21h16.23.720,bandit task,2022.2.5,143.85032662461768,
34,0,34,0,,,,,,,,,,,,,,,,,44.33634600020014,44.33634600020014,44.33634600020014,44.33634600020014,44.33634600020014,q,0.0432052998803556,44.38981580012478,44.38981580012478,44.79414080013521,44.79414080013521,,,,,,,,,,,,,,,,,,,,,,,,,,,,,,,,121dsfdsf,dsfsd,2023-04-12_21h16.23.720,bandit task,2022.2.5,143.85032662461768,
35,0,35,0,,,,,,,,,,,,,,,,,44.79414080013521,44.79414080013521,44.79414080013521,44.79414080013521,44.79414080013521,o,0.08017809991724789,44.88401130004786,44.88401130004786,45.287242700112984,45.287242700112984,,,,,,,,,,,,,,,,,,,,,,,,,,,,,,,,121dsfdsf,dsfsd,2023-04-12_21h16.23.720,bandit task,2022.2.5,143.85032662461768,
36,0,36,0,,,,,,,,,,,,,,,,,45.287242700112984,45.287242700112984,45.287242700112984,45.287242700112984,45.287242700112984,p,0.38120069983415306,45.67504370003007,45.67504370003007,46.07895670016296,46.07895670016296,,,,,,,,,,,,,,,,,,,,,,,,,,,,,,,,121dsfdsf,dsfsd,2023-04-12_21h16.23.720,bandit task,2022.2.5,143.85032662461768,
37,0,37,0,,,,,,,,,,,,,,,,,46.07895670016296,46.07895670016296,46.07895670016296,46.07895670016296,46.07895670016296,q,0.07801000005565584,46.1677667000331,46.1677667000331,46.57184510002844,46.57184510002844,,,,,,,,,,,,,,,,,,,,,,,,,,,,,,,,121dsfdsf,dsfsd,2023-04-12_21h16.23.720,bandit task,2022.2.5,143.85032662461768,
38,0,38,0,,,,,,,,,,,,,,,,,46.57184510002844,46.57184510002844,46.57184510002844,46.57184510002844,46.57184510002844,q,0.07443739986047149,46.65455300011672,46.65455300011672,47.0581369001884,47.0581369001884,,,,,,,,,,,,,,,,,,,,,,,,,,,,,,,,121dsfdsf,dsfsd,2023-04-12_21h16.23.720,bandit task,2022.2.5,143.85032662461768,
39,0,39,0,,,,,,,,,,,,,,,,,47.0581369001884,47.0581369001884,47.0581369001884,47.0581369001884,47.0581369001884,w,0.04358869977295399,47.112430200213566,47.112430200213566,47.51452960004099,47.51452960004099,,,,,,,,,,,,,,,,,,,,,,,,,,,,,,,,121dsfdsf,dsfsd,2023-04-12_21h16.23.720,bandit task,2022.2.5,143.85032662461768,
,,,,,,,,,,,,,,,,,,,,,,,,,,,,,,,47.51452960004099,47.51452960004099,space,0.9798644999973476,,,,,,,,,,,,,,,,,,,,,,,,,,,,121dsfdsf,dsfsd,2023-04-12_21h16.23.720,bandit task,2022.2.5,143.85032662461768,
,,,,,,,,0,0,0,0,,,,,,,,,,,,,,,,,,,,,,,,48.509639700176194,48.509639700176194,48.509639700176194,48.509639700176194,48.509639700176194,48.509639700176194,48.509639700176194,48.509639700176194,48.509639700176194,q,0.36977699981071055,48.89008620008826,48.89008620008826,48.89008620008826,48.89008620008826,49.293949900195,49.293949900195,,,,,,,,,,,121dsfdsf,dsfsd,2023-04-12_21h16.23.720,bandit task,2022.2.5,143.85032662461768,
,,,,,,,,1,0,1,0,,,,,,,,,,,,,,,,,,,,,,,,49.293949900195,49.293949900195,49.293949900195,49.293949900195,49.293949900195,49.293949900195,49.293949900195,49.293949900195,49.293949900195,None,,50.29388860007748,50.697574800113216,50.29388860007748,50.29388860007748,50.29388860007748,50.697574800113216,50.29388860007748,50.29388860007748,50.29388860007748,50.29388860007748,50.29388860007748,50.29388860007748,50.29388860007748,50.29388860007748,50.29388860007748,,121dsfdsf,dsfsd,2023-04-12_21h16.23.720,bandit task,2022.2.5,143.85032662461768,
,,,,,,,,2,0,2,0,,,,,,,,,,,,,,,,,,,,,,,,50.697574800113216,50.697574800113216,50.697574800113216,50.697574800113216,50.697574800113216,50.697574800113216,50.697574800113216,50.697574800113216,50.697574800113216,q,0.49914309987798333,51.202783200191334,51.202783200191334,51.202783200191334,51.202783200191334,51.606820800108835,51.606820800108835,,,,,,,,,,,121dsfdsf,dsfsd,2023-04-12_21h16.23.720,bandit task,2022.2.5,143.85032662461768,
,,,,,,,,3,0,3,0,,,,,,,,,,,,,,,,,,,,,,,,51.606820800108835,51.606820800108835,51.606820800108835,51.606820800108835,51.606820800108835,51.606820800108835,51.606820800108835,51.606820800108835,51.606820800108835,w,0.2771804998628795,51.890184400137514,51.890184400137514,51.890184400137514,51.890184400137514,52.29420810006559,52.29420810006559,,,,,,,,,,,121dsfdsf,dsfsd,2023-04-12_21h16.23.720,bandit task,2022.2.5,143.85032662461768,
,,,,,,,,4,0,4,0,,,,,,,,,,,,,,,,,,,,,,,,52.29420810006559,52.29420810006559,52.29420810006559,52.29420810006559,52.29420810006559,52.29420810006559,52.29420810006559,52.29420810006559,52.29420810006559,p,0.2505130998324603,52.556574600050226,52.556574600050226,52.556574600050226,52.556574600050226,52.960968600120395,52.960968600120395,,,,,,,,,,,121dsfdsf,dsfsd,2023-04-12_21h16.23.720,bandit task,2022.2.5,143.85032662461768,
,,,,,,,,5,0,5,0,,,,,,,,,,,,,,,,,,,,,,,,52.960968600120395,52.960968600120395,52.960968600120395,52.960968600120395,52.960968600120395,52.960968600120395,52.960968600120395,52.960968600120395,52.960968600120395,w,0.3335525000002235,53.30604670010507,53.30604670010507,53.30604670010507,53.30604670010507,53.710559100145474,53.710559100145474,,,,,,,,,,,121dsfdsf,dsfsd,2023-04-12_21h16.23.720,bandit task,2022.2.5,143.85032662461768,
,,,,,,,,6,0,6,0,,,,,,,,,,,,,,,,,,,,,,,,53.710559100145474,53.710559100145474,53.710559100145474,53.710559100145474,53.710559100145474,53.710559100145474,53.710559100145474,53.710559100145474,53.710559100145474,p,0.2833265997469425,54.0014968002215,54.0014968002215,54.0014968002215,54.0014968002215,54.40537380008027,54.40537380008027,,,,,,,,,,,121dsfdsf,dsfsd,2023-04-12_21h16.23.720,bandit task,2022.2.5,143.85032662461768,
,,,,,,,,7,0,7,0,,,,,,,,,,,,,,,,,,,,,,,,54.40537380008027,54.40537380008027,54.40537380008027,54.40537380008027,54.40537380008027,54.40537380008027,54.40537380008027,54.40537380008027,54.40537380008027,q,0.18701839982531965,54.59854040015489,54.59854040015489,54.59854040015489,54.59854040015489,55.002739700023085,55.002739700023085,,,,,,,,,,,121dsfdsf,dsfsd,2023-04-12_21h16.23.720,bandit task,2022.2.5,143.85032662461768,
,,,,,,,,8,0,8,0,,,,,,,,,,,,,,,,,,,,,,,,55.002739700023085,55.002739700023085,55.002739700023085,55.002739700023085,55.002739700023085,55.002739700023085,55.002739700023085,55.002739700023085,55.002739700023085,p,0.2731073999311775,55.28553650015965,55.28553650015965,55.28553650015965,55.28553650015965,55.69040590012446,55.69040590012446,,,,,,,,,,,121dsfdsf,dsfsd,2023-04-12_21h16.23.720,bandit task,2022.2.5,143.85032662461768,
,,,,,,,,9,0,9,0,,,,,,,,,,,,,,,,,,,,,,,,55.69040590012446,55.69040590012446,55.69040590012446,55.69040590012446,55.69040590012446,55.69040590012446,55.69040590012446,55.69040590012446,55.69040590012446,w,0.2514219000004232,55.954754900187254,55.954754900187254,55.954754900187254,55.954754900187254,56.35701180016622,56.35701180016622,,,,,,,,,,,121dsfdsf,dsfsd,2023-04-12_21h16.23.720,bandit task,2022.2.5,143.85032662461768,
,,,,,,,,10,0,10,0,,,,,,,,,,,,,,,,,,,,,,,,56.35701180016622,56.35701180016622,56.35701180016622,56.35701180016622,56.35701180016622,56.35701180016622,56.35701180016622,56.35701180016622,56.35701180016622,p,0.18944339989684522,56.55667080008425,56.55667080008425,56.55667080008425,56.55667080008425,56.96097080013715,56.96097080013715,,,,,,,,,,,121dsfdsf,dsfsd,2023-04-12_21h16.23.720,bandit task,2022.2.5,143.85032662461768,
,,,,,,,,11,0,11,0,,,,,,,,,,,,,,,,,,,,,,,,56.96097080013715,56.96097080013715,56.96097080013715,56.96097080013715,56.96097080013715,56.96097080013715,56.96097080013715,56.96097080013715,56.96097080013715,q,0.12089219968765974,57.0908531001769,57.0908531001769,57.0908531001769,57.0908531001769,57.49545030016452,57.49545030016452,,,,,,,,,,,121dsfdsf,dsfsd,2023-04-12_21h16.23.720,bandit task,2022.2.5,143.85032662461768,
,,,,,,,,12,0,12,0,,,,,,,,,,,,,,,,,,,,,,,,57.49545030016452,57.49545030016452,57.49545030016452,57.49545030016452,57.49545030016452,57.49545030016452,57.49545030016452,57.49545030016452,57.49545030016452,o,0.08520009974017739,57.59319050004706,57.59319050004706,57.59319050004706,57.59319050004706,57.9957893001847,57.9957893001847,,,,,,,,,,,121dsfdsf,dsfsd,2023-04-12_21h16.23.720,bandit task,2022.2.5,143.85032662461768,
,,,,,,,,13,0,13,0,,,,,,,,,,,,,,,,,,,,,,,,57.9957893001847,57.9957893001847,57.9957893001847,57.9957893001847,57.9957893001847,57.9957893001847,57.9957893001847,57.9957893001847,57.9957893001847,w,0.09769889991730452,58.10472630010918,58.10472630010918,58.10472630010918,58.10472630010918,58.510138200130314,58.510138200130314,,,,,,,,,,,121dsfdsf,dsfsd,2023-04-12_21h16.23.720,bandit task,2022.2.5,143.85032662461768,
,,,,,,,,14,0,14,0,,,,,,,,,,,,,,,,,,,,,,,,58.510138200130314,58.510138200130314,58.510138200130314,58.510138200130314,58.510138200130314,58.510138200130314,58.510138200130314,58.510138200130314,58.510138200130314,p,0.12367559969425201,58.64021630003117,58.64021630003117,58.64021630003117,58.64021630003117,59.0442844000645,59.0442844000645,,,,,,,,,,,121dsfdsf,dsfsd,2023-04-12_21h16.23.720,bandit task,2022.2.5,143.85032662461768,
,,,,,,,,15,0,15,0,,,,,,,,,,,,,,,,,,,,,,,,59.0442844000645,59.0442844000645,59.0442844000645,59.0442844000645,59.0442844000645,59.0442844000645,59.0442844000645,59.0442844000645,59.0442844000645,q,0.12317989999428391,59.17539870017208,59.17539870017208,59.17539870017208,59.17539870017208,59.57887510000728,59.57887510000728,,,,,,,,,,,121dsfdsf,dsfsd,2023-04-12_21h16.23.720,bandit task,2022.2.5,143.85032662461768,
,,,,,,,,16,0,16,0,,,,,,,,,,,,,,,,,,,,,,,,59.57887510000728,59.57887510000728,59.57887510000728,59.57887510000728,59.57887510000728,59.57887510000728,59.57887510000728,59.57887510000728,59.57887510000728,p,0.07707289978861809,59.667339000152424,59.667339000152424,59.667339000152424,59.667339000152424,60.071823900099844,60.071823900099844,,,,,,,,,,,121dsfdsf,dsfsd,2023-04-12_21h16.23.720,bandit task,2022.2.5,143.85032662461768,
,,,,,,,,17,0,17,0,,,,,,,,,,,,,,,,,,,,,,,,60.071823900099844,60.071823900099844,60.071823900099844,60.071823900099844,60.071823900099844,60.071823900099844,60.071823900099844,60.071823900099844,60.071823900099844,w,0.12526330002583563,60.203185700112954,60.203185700112954,60.203185700112954,60.203185700112954,60.60672700009309,60.60672700009309,,,,,,,,,,,121dsfdsf,dsfsd,2023-04-12_21h16.23.720,bandit task,2022.2.5,143.85032662461768,
,,,,,,,,18,0,18,0,,,,,,,,,,,,,,,,,,,,,,,,60.60672700009309,60.60672700009309,60.60672700009309,60.60672700009309,60.60672700009309,60.60672700009309,60.60672700009309,60.60672700009309,60.60672700009309,p,0.16184669989161193,60.77888180012815,60.77888180012815,60.77888180012815,60.77888180012815,61.183009000029415,61.183009000029415,,,,,,,,,,,121dsfdsf,dsfsd,2023-04-12_21h16.23.720,bandit task,2022.2.5,143.85032662461768,
,,,,,,,,19,0,19,0,,,,,,,,,,,,,,,,,,,,,,,,61.183009000029415,61.183009000029415,61.183009000029415,61.183009000029415,61.183009000029415,61.183009000029415,61.183009000029415,61.183009000029415,61.183009000029415,q,0.034680299926549196,61.22339180018753,61.22339180018753,61.22339180018753,61.22339180018753,61.62794810021296,61.62794810021296,,,,,,,,,,,121dsfdsf,dsfsd,2023-04-12_21h16.23.720,bandit task,2022.2.5,143.85032662461768,
,,,,,,,,20,0,20,0,,,,,,,,,,,,,,,,,,,,,,,,61.62794810021296,61.62794810021296,61.62794810021296,61.62794810021296,61.62794810021296,61.62794810021296,61.62794810021296,61.62794810021296,61.62794810021296,p,0.11599970003589988,61.75132650020532,61.75132650020532,61.75132650020532,61.75132650020532,62.155246700160205,62.155246700160205,,,,,,,,,,,121dsfdsf,dsfsd,2023-04-12_21h16.23.720,bandit task,2022.2.5,143.85032662461768,
,,,,,,,,21,0,21,0,,,,,,,,,,,,,,,,,,,,,,,,62.155246700160205,62.155246700160205,62.155246700160205,62.155246700160205,62.155246700160205,62.155246700160205,62.155246700160205,62.155246700160205,62.155246700160205,w,0.03355019981972873,62.19637060002424,62.19637060002424,62.19637060002424,62.19637060002424,62.59973380016163,62.59973380016163,,,,,,,,,,,121dsfdsf,dsfsd,2023-04-12_21h16.23.720,bandit task,2022.2.5,143.85032662461768,
,,,,,,,,22,0,22,0,,,,,,,,,,,,,,,,,,,,,,,,62.59973380016163,62.59973380016163,62.59973380016163,62.59973380016163,62.59973380016163,62.59973380016163,62.59973380016163,62.59973380016163,62.59973380016163,o,0.03473190008662641,62.64060710021295,62.64060710021295,62.64060710021295,62.64060710021295,63.044273000210524,63.044273000210524,,,,,,,,,,,121dsfdsf,dsfsd,2023-04-12_21h16.23.720,bandit task,2022.2.5,143.85032662461768,
,,,,,,,,23,0,23,0,,,,,,,,,,,,,,,,,,,,,,,,63.044273000210524,63.044273000210524,63.044273000210524,63.044273000210524,63.044273000210524,63.044273000210524,63.044273000210524,63.044273000210524,63.044273000210524,q,0.38243149989284575,63.438903300091624,63.438903300091624,63.438903300091624,63.438903300091624,63.842513400129974,63.842513400129974,,,,,,,,,,,121dsfdsf,dsfsd,2023-04-12_21h16.23.720,bandit task,2022.2.5,143.85032662461768,
,,,,,,,,24,0,24,0,,,,,,,,,,,,,,,,,,,,,,,,63.842513400129974,63.842513400129974,63.842513400129974,63.842513400129974,63.842513400129974,63.842513400129974,63.842513400129974,63.842513400129974,63.842513400129974,p,0.11279789987020195,63.965704100206494,63.965704100206494,63.965704100206494,63.965704100206494,64.37031200015917,64.37031200015917,,,,,,,,,,,121dsfdsf,dsfsd,2023-04-12_21h16.23.720,bandit task,2022.2.5,143.85032662461768,
,,,,,,,,25,0,25,0,,,,,,,,,,,,,,,,,,,,,,,,64.37031200015917,64.37031200015917,64.37031200015917,64.37031200015917,64.37031200015917,64.37031200015917,64.37031200015917,64.37031200015917,64.37031200015917,w,0.17903389967978,64.55741590005346,64.55741590005346,64.55741590005346,64.55741590005346,64.96161660016514,64.96161660016514,,,,,,,,,,,121dsfdsf,dsfsd,2023-04-12_21h16.23.720,bandit task,2022.2.5,143.85032662461768,
,,,,,,,,26,0,26,0,,,,,,,,,,,,,,,,,,,,,,,,64.96161660016514,64.96161660016514,64.96161660016514,64.96161660016514,64.96161660016514,64.96161660016514,64.96161660016514,64.96161660016514,64.96161660016514,o,0.21260669990442693,65.1844297000207,65.1844297000207,65.1844297000207,65.1844297000207,65.58634540019557,65.58634540019557,,,,,,,,,,,121dsfdsf,dsfsd,2023-04-12_21h16.23.720,bandit task,2022.2.5,143.85032662461768,
,,,,,,,,27,0,27,0,,,,,,,,,,,,,,,,,,,,,,,,65.58634540019557,65.58634540019557,65.58634540019557,65.58634540019557,65.58634540019557,65.58634540019557,65.58634540019557,65.58634540019557,65.58634540019557,q,0.11639159987680614,65.71019150014035,65.71019150014035,65.71019150014035,65.71019150014035,66.1136515000835,66.1136515000835,,,,,,,,,,,121dsfdsf,dsfsd,2023-04-12_21h16.23.720,bandit task,2022.2.5,143.85032662461768,
,,,,,,,,28,0,28,0,,,,,,,,,,,,,,,,,,,,,,,,66.1136515000835,66.1136515000835,66.1136515000835,66.1136515000835,66.1136515000835,66.1136515000835,66.1136515000835,66.1136515000835,66.1136515000835,p,0.1319396998733282,66.25210750009865,66.25210750009865,66.25210750009865,66.25210750009865,66.6558825999964,66.6558825999964,,,,,,,,,,,121dsfdsf,dsfsd,2023-04-12_21h16.23.720,bandit task,2022.2.5,143.85032662461768,
,,,,,,,,29,0,29,0,,,,,,,,,,,,,,,,,,,,,,,,66.6558825999964,66.6558825999964,66.6558825999964,66.6558825999964,66.6558825999964,66.6558825999964,66.6558825999964,66.6558825999964,66.6558825999964,w,0.12097309972159564,66.78581820009276,66.78581820009276,66.78581820009276,66.78581820009276,67.18988439999521,67.18988439999521,,,,,,,,,,,121dsfdsf,dsfsd,2023-04-12_21h16.23.720,bandit task,2022.2.5,143.85032662461768,
,,,,,,,,30,0,30,0,,,,,,,,,,,,,,,,,,,,,,,,67.18988439999521,67.18988439999521,67.18988439999521,67.18988439999521,67.18988439999521,67.18988439999521,67.18988439999521,67.18988439999521,67.18988439999521,o,0.12655769987031817,67.32763330009766,67.32763330009766,67.32763330009766,67.32763330009766,67.73240140010603,67.73240140010603,,,,,,,,,,,121dsfdsf,dsfsd,2023-04-12_21h16.23.720,bandit task,2022.2.5,143.85032662461768,
,,,,,,,,31,0,31,0,,,,,,,,,,,,,,,,,,,,,,,,67.73240140010603,67.73240140010603,67.73240140010603,67.73240140010603,67.73240140010603,67.73240140010603,67.73240140010603,67.73240140010603,67.73240140010603,q,0.0945716998539865,67.83455860009417,67.83455860009417,67.83455860009417,67.83455860009417,68.23859520000406,68.23859520000406,,,,,,,,,,,121dsfdsf,dsfsd,2023-04-12_21h16.23.720,bandit task,2022.2.5,143.85032662461768,
,,,,,,,,32,0,32,0,,,,,,,,,,,,,,,,,,,,,,,,68.23859520000406,68.23859520000406,68.23859520000406,68.23859520000406,68.23859520000406,68.23859520000406,68.23859520000406,68.23859520000406,68.23859520000406,p,0.08486009994521737,68.33411240018904,68.33411240018904,68.33411240018904,68.33411240018904,68.73864860017784,68.73864860017784,,,,,,,,,,,121dsfdsf,dsfsd,2023-04-12_21h16.23.720,bandit task,2022.2.5,143.85032662461768,
,,,,,,,,33,0,33,0,,,,,,,,,,,,,,,,,,,,,,,,68.73864860017784,68.73864860017784,68.73864860017784,68.73864860017784,68.73864860017784,68.73864860017784,68.73864860017784,68.73864860017784,68.73864860017784,w,0.10375679982826114,68.84870440000668,68.84870440000668,68.84870440000668,68.84870440000668,69.2524274000898,69.2524274000898,,,,,,,,,,,121dsfdsf,dsfsd,2023-04-12_21h16.23.720,bandit task,2022.2.5,143.85032662461768,
,,,,,,,,34,0,34,0,,,,,,,,,,,,,,,,,,,,,,,,69.2524274000898,69.2524274000898,69.2524274000898,69.2524274000898,69.2524274000898,69.2524274000898,69.2524274000898,69.2524274000898,69.2524274000898,o,0.11428910004906356,69.37664780020714,69.37664780020714,69.37664780020714,69.37664780020714,69.78016990004107,69.78016990004107,,,,,,,,,,,121dsfdsf,dsfsd,2023-04-12_21h16.23.720,bandit task,2022.2.5,143.85032662461768,
,,,,,,,,35,0,35,0,,,,,,,,,,,,,,,,,,,,,,,,69.78016990004107,69.78016990004107,69.78016990004107,69.78016990004107,69.78016990004107,69.78016990004107,69.78016990004107,69.78016990004107,69.78016990004107,q,0.029493900015950203,69.82061610021628,69.82061610021628,69.82061610021628,69.82061610021628,70.22474840003997,70.22474840003997,,,,,,,,,,,121dsfdsf,dsfsd,2023-04-12_21h16.23.720,bandit task,2022.2.5,143.85032662461768,
,,,,,,,,36,0,36,0,,,,,,,,,,,,,,,,,,,,,,,,70.22474840003997,70.22474840003997,70.22474840003997,70.22474840003997,70.22474840003997,70.22474840003997,70.22474840003997,70.22474840003997,70.22474840003997,p,0.05413899989798665,70.28643200010993,70.28643200010993,70.28643200010993,70.28643200010993,70.68978870008141,70.68978870008141,,,,,,,,,,,121dsfdsf,dsfsd,2023-04-12_21h16.23.720,bandit task,2022.2.5,143.85032662461768,
,,,,,,,,37,0,37,0,,,,,,,,,,,,,,,,,,,,,,,,70.68978870008141,70.68978870008141,70.68978870008141,70.68978870008141,70.68978870008141,70.68978870008141,70.68978870008141,70.68978870008141,70.68978870008141,w,0.012802799930796027,70.70987380016595,70.70987380016595,70.70987380016595,70.70987380016595,71.11358980019577,71.11358980019577,,,,,,,,,,,121dsfdsf,dsfsd,2023-04-12_21h16.23.720,bandit task,2022.2.5,143.85032662461768,
,,,,,,,,38,0,38,0,,,,,,,,,,,,,,,,,,,,,,,,71.11358980019577,71.11358980019577,71.11358980019577,71.11358980019577,71.11358980019577,71.11358980019577,71.11358980019577,71.11358980019577,71.11358980019577,o,0.47790139983408153,71.59909730008803,71.59909730008803,71.59909730008803,71.59909730008803,72.00260110013187,72.00260110013187,,,,,,,,,,,121dsfdsf,dsfsd,2023-04-12_21h16.23.720,bandit task,2022.2.5,143.85032662461768,
,,,,,,,,39,0,39,0,,,,,,,,,,,,,,,,,,,,,,,,72.00260110013187,72.00260110013187,72.00260110013187,72.00260110013187,72.00260110013187,72.00260110013187,72.00260110013187,72.00260110013187,72.00260110013187,q,0.0828930998686701,72.09139470010996,72.09139470010996,72.09139470010996,72.09139470010996,72.49653150001541,72.49653150001541,,,,,,,,,,,121dsfdsf,dsfsd,2023-04-12_21h16.23.720,bandit task,2022.2.5,143.85032662461768,
,,,,,,,,,,,,,,,,,,,,,,,,,,,,,,,,,,,,,,,,,,,,,,,,,,,,,,,,,,,,,72.49653150001541,,,,,,,
