newtrials.thisRepN,newtrials.thisTrialN,newtrials.thisN,newtrials.thisIndex,trials.thisRepN,trials.thisTrialN,trials.thisN,trials.thisIndex,trials_2.thisRepN,trials_2.thisTrialN,trials_2.thisN,trials_2.thisIndex,newintrotext.started,newintroresp.started,newintroresp.keys,newintroresp.rt,key_resp_2.started,reme_t.started,key_resp_2.keys,key_resp_2.rt,newkeyresp.started,nQ.started,nW.started,nO.started,nP.started,newkeyresp.keys,newkeyresp.rt,text_7.started,text.started,text_7.stopped,text_6.started,textbox.started,key_resp_3.started,textbox.text,key_resp_3.keys,key_resp_3.rt,text_2.started,text_4.started,Roll Number,Name,date,expName,psychopyVersion,frameRate,
,,,,,,,,,,,,15.782300800085068,15.782300800085068,space,0.41904509998857975,,,,,,,,,,,,,,,,,,,,,,,ww,xx,2023-04-13_23h27.28.643,bandit task,2022.2.5,143.67609649673227,
0,0,0,0,0,0,0,0,,,,,,,,,16.22496040002443,16.22496040002443,space,1.8341469001024961,,,,,,,,,,,,,,,,,,,ww,xx,2023-04-13_23h27.28.643,bandit task,2022.2.5,143.67609649673227,
0,0,0,0,,,,,,,,,,,,,,,,,18.08619869989343,18.08619869989343,18.08619869989343,18.08619869989343,18.08619869989343,q,0.42425079992972314,18.524387100012973,18.539063799893484,,,,,,,,,,ww,xx,2023-04-13_23h27.28.643,bandit task,2022.2.5,143.67609649673227,
1,0,1,0,,,,,,,,,,,,,,,,,18.937349200015888,18.937349200015888,18.937349200015888,18.937349200015888,18.937349200015888,w,0.28324060002341866,19.231550799915567,19.247438000049442,,,,,,,,,,ww,xx,2023-04-13_23h27.28.643,bandit task,2022.2.5,143.67609649673227,
2,0,2,0,,,,,,,,,,,,,,,,,19.646489900071174,19.646489900071174,19.646489900071174,19.646489900071174,19.646489900071174,o,0.1729403999634087,19.826828199904412,19.837586299981922,19.837586299981922,,,,,,,,,ww,xx,2023-04-13_23h27.28.643,bandit task,2022.2.5,143.67609649673227,
3,0,3,0,,,,,,,,,,,,,,,,,20.244173199869692,20.244173199869692,20.244173199869692,20.244173199869692,20.244173199869692,o,0.17233550013042986,20.42100269999355,20.434910400072113,20.434910400072113,,,,,,,,,ww,xx,2023-04-13_23h27.28.643,bandit task,2022.2.5,143.67609649673227,
4,0,4,0,,,,,,,,,,,,,,,,,20.840833199908957,20.840833199908957,20.840833199908957,20.840833199908957,20.840833199908957,w,0.14585199998691678,20.99180019996129,21.00461470009759,21.00461470009759,,,,,,,,,ww,xx,2023-04-13_23h27.28.643,bandit task,2022.2.5,143.67609649673227,
5,0,5,0,,,,,,,,,,,,,,,,,21.410506299929693,21.410506299929693,21.410506299929693,21.410506299929693,21.410506299929693,w,0.1340421000495553,21.553771500010043,21.566906000021845,21.566906000021845,,,,,,,,,ww,xx,2023-04-13_23h27.28.643,bandit task,2022.2.5,143.67609649673227,
6,0,6,0,,,,,,,,,,,,,,,,,21.972683900035918,21.972683900035918,21.972683900035918,21.972683900035918,21.972683900035918,q,0.14775780006311834,22.129417299991474,22.14331559999846,22.14331559999846,,,,,,,,,ww,xx,2023-04-13_23h27.28.643,bandit task,2022.2.5,143.67609649673227,
7,0,7,0,,,,,,,,,,,,,,,,,22.54893229994923,22.54893229994923,22.54893229994923,22.54893229994923,22.54893229994923,q,0.16759550012648106,22.72666410007514,22.740466499933973,22.740466499933973,,,,,,,,,ww,xx,2023-04-13_23h27.28.643,bandit task,2022.2.5,143.67609649673227,
8,0,8,0,,,,,,,,,,,,,,,,,23.14582209987566,23.14582209987566,23.14582209987566,23.14582209987566,23.14582209987566,p,0.11292960005812347,23.27152740000747,23.282170899910852,23.282170899910852,,,,,,,,,ww,xx,2023-04-13_23h27.28.643,bandit task,2022.2.5,143.67609649673227,
9,0,9,0,,,,,,,,,,,,,,,,,23.687723400071263,23.687723400071263,23.687723400071263,23.687723400071263,23.687723400071263,w,0.11639440013095737,23.809960199985653,23.823780999984592,23.823780999984592,,,,,,,,,ww,xx,2023-04-13_23h27.28.643,bandit task,2022.2.5,143.67609649673227,
10,0,10,0,,,,,,,,,,,,,,,,,24.229520400054753,24.229520400054753,24.229520400054753,24.229520400054753,24.229520400054753,o,0.1453233000356704,24.379276199964806,24.39314950001426,24.39314950001426,,,,,,,,,ww,xx,2023-04-13_23h27.28.643,bandit task,2022.2.5,143.67609649673227,
11,0,11,0,,,,,,,,,,,,,,,,,24.798520399956033,24.798520399956033,24.798520399956033,24.798520399956033,24.798520399956033,q,0.09965300001204014,24.907033500028774,24.920994699932635,,,,,,,,,,ww,xx,2023-04-13_23h27.28.643,bandit task,2022.2.5,143.67609649673227,
12,0,12,0,,,,,,,,,,,,,,,,,25.326197399990633,25.326197399990633,25.326197399990633,25.326197399990633,25.326197399990633,p,0.12298460002057254,25.455671600066125,25.469759699888527,25.469759699888527,,,,,,,,,ww,xx,2023-04-13_23h27.28.643,bandit task,2022.2.5,143.67609649673227,
13,0,13,0,,,,,,,,,,,,,,,,,25.87506329989992,25.87506329989992,25.87506329989992,25.87506329989992,25.87506329989992,w,0.0830816999077797,25.962811399949715,25.97656499990262,25.97656499990262,,,,,,,,,ww,xx,2023-04-13_23h27.28.643,bandit task,2022.2.5,143.67609649673227,
14,0,14,0,,,,,,,,,,,,,,,,,26.381992999929935,26.381992999929935,26.381992999929935,26.381992999929935,26.381992999929935,o,0.07198829995468259,26.46256859996356,26.476549899904057,,,,,,,,,,ww,xx,2023-04-13_23h27.28.643,bandit task,2022.2.5,143.67609649673227,
15,0,15,0,,,,,,,,,,,,,,,,,26.881772799883038,26.881772799883038,26.881772799883038,26.881772799883038,26.881772799883038,q,0.061905300011858344,26.94914639997296,26.962556699989364,26.962556699989364,,,,,,,,,ww,xx,2023-04-13_23h27.28.643,bandit task,2022.2.5,143.67609649673227,
16,0,16,0,,,,,,,,,,,,,,,,,27.368320199893788,27.368320199893788,27.368320199893788,27.368320199893788,27.368320199893788,p,0.0756519001442939,27.44894939986989,27.46266629989259,27.46266629989259,,,,,,,,,ww,xx,2023-04-13_23h27.28.643,bandit task,2022.2.5,143.67609649673227,
17,0,17,0,,,,,,,,,,,,,,,,,27.868269599974155,27.868269599974155,27.868269599974155,27.868269599974155,27.868269599974155,w,0.05683619994670153,27.93491020007059,27.948903699871153,,,,,,,,,,ww,xx,2023-04-13_23h27.28.643,bandit task,2022.2.5,143.67609649673227,
18,0,18,0,,,,,,,,,,,,,,,,,28.354494499973953,28.354494499973953,28.354494499973953,28.354494499973953,28.354494499973953,o,0.0912395000923425,28.455559500027448,28.4696078998968,28.4696078998968,,,,,,,,,ww,xx,2023-04-13_23h27.28.643,bandit task,2022.2.5,143.67609649673227,
19,0,19,0,,,,,0,0,0,0,,,,,,,,,28.875057900091633,28.875057900091633,28.875057900091633,28.875057900091633,28.875057900091633,q,0.07899780012667179,28.962551099946722,28.976568199926987,28.976568199926987,29.380287899868563,29.380287899868563,29.380287899868563,o ,space,1.229281699983403,30.623271599877626,,ww,xx,2023-04-13_23h27.28.643,bandit task,2022.2.5,143.67609649673227,
19,0,19,0,,,,,,,,,,,,,,,,,,,,,,,,,,,,,,,,,,,ww,xx,2023-04-13_23h27.28.643,bandit task,2022.2.5,143.67609649673227,
20,0,20,0,0,0,0,0,,,,,,,,,31.025566600030288,31.025566600030288,space,1.4705463000573218,,,,,,,,,,,,,,,,,,,ww,xx,2023-04-13_23h27.28.643,bandit task,2022.2.5,143.67609649673227,
20,0,20,0,,,,,,,,,,,,,,,,,32.50680139986798,32.50680139986798,32.50680139986798,32.50680139986798,32.50680139986798,q,0.4112472999840975,32.927844600053504,32.941700000083074,32.941700000083074,,,,,,,,,ww,xx,2023-04-13_23h27.28.643,bandit task,2022.2.5,143.67609649673227,
21,0,21,0,,,,,,,,,,,,,,,,,33.34803059999831,33.34803059999831,33.34803059999831,33.34803059999831,33.34803059999831,o,0.17278489982709289,33.52519519999623,33.539162799948826,33.539162799948826,,,,,,,,,ww,xx,2023-04-13_23h27.28.643,bandit task,2022.2.5,143.67609649673227,
22,0,22,0,,,,,,,,,,,,,,,,,33.94467610004358,33.94467610004358,33.94467610004358,33.94467610004358,33.94467610004358,w,0.07467409991659224,34.02515170001425,34.03904609987512,34.03904609987512,,,,,,,,,ww,xx,2023-04-13_23h27.28.643,bandit task,2022.2.5,143.67609649673227,
23,0,23,0,,,,,,,,,,,,,,,,,34.444609799887985,34.444609799887985,34.444609799887985,34.444609799887985,34.444609799887985,p,0.07944700005464256,34.53204580000602,34.546130100032315,34.546130100032315,,,,,,,,,ww,xx,2023-04-13_23h27.28.643,bandit task,2022.2.5,143.67609649673227,
24,0,24,0,,,,,,,,,,,,,,,,,34.951934200013056,34.951934200013056,34.951934200013056,34.951934200013056,34.951934200013056,q,0.08352630003355443,35.03908209991641,35.05288040009327,35.05288040009327,,,,,,,,,ww,xx,2023-04-13_23h27.28.643,bandit task,2022.2.5,143.67609649673227,
25,0,25,0,,,,,,,,,,,,,,,,,35.45873529999517,35.45873529999517,35.45873529999517,35.45873529999517,35.45873529999517,o,0.0408185999840498,35.50422149989754,35.518331199884415,35.518331199884415,,,,,,,,,ww,xx,2023-04-13_23h27.28.643,bandit task,2022.2.5,143.67609649673227,
26,0,26,0,,,,,,,,,,,,,,,,,35.92344360006973,35.92344360006973,35.92344360006973,35.92344360006973,35.92344360006973,w,0.07622799999080598,36.00420289998874,36.01818159990944,36.01818159990944,,,,,,,,,ww,xx,2023-04-13_23h27.28.643,bandit task,2022.2.5,143.67609649673227,
27,0,27,0,,,,,,,,,,,,,,,,,36.42352920002304,36.42352920002304,36.42352920002304,36.42352920002304,36.42352920002304,p,0.0812727001029998,36.51124439993873,36.52502890001051,36.52502890001051,,,,,,,,,ww,xx,2023-04-13_23h27.28.643,bandit task,2022.2.5,143.67609649673227,
28,0,28,0,,,,,,,,,,,,,,,,,36.93050149991177,36.93050149991177,36.93050149991177,36.93050149991177,36.93050149991177,q,0.015286699868738651,36.955521600088105,36.96968650002964,36.96968650002964,,,,,,,,,ww,xx,2023-04-13_23h27.28.643,bandit task,2022.2.5,143.67609649673227,
29,0,29,0,,,,,,,,,,,,,,,,,37.375232599908486,37.375232599908486,37.375232599908486,37.375232599908486,37.375232599908486,o,0.07427380001172423,37.455691299866885,37.46949429996312,37.46949429996312,,,,,,,,,ww,xx,2023-04-13_23h27.28.643,bandit task,2022.2.5,143.67609649673227,
30,0,30,0,,,,,,,,,,,,,,,,,37.875441999873146,37.875441999873146,37.875441999873146,37.875441999873146,37.875441999873146,w,0.019317399943247437,37.90011060005054,37.914036999922246,37.914036999922246,,,,,,,,,ww,xx,2023-04-13_23h27.28.643,bandit task,2022.2.5,143.67609649673227,
31,0,31,0,,,,,,,,,,,,,,,,,38.3194027999416,38.3194027999416,38.3194027999416,38.3194027999416,38.3194027999416,p,0.049170600017532706,38.37267030007206,38.386349299922585,38.386349299922585,,,,,,,,,ww,xx,2023-04-13_23h27.28.643,bandit task,2022.2.5,143.67609649673227,
32,0,32,0,,,,,,,,,,,,,,,,,38.79152500000782,38.79152500000782,38.79152500000782,38.79152500000782,38.79152500000782,q,0.04852690012194216,38.84455809998326,38.85845729988068,38.85845729988068,,,,,,,,,ww,xx,2023-04-13_23h27.28.643,bandit task,2022.2.5,143.67609649673227,
33,0,33,0,,,,,,,,,,,,,,,,,39.26421729987487,39.26421729987487,39.26421729987487,39.26421729987487,39.26421729987487,o,0.057291500037536025,39.330868599936366,39.34467460005544,39.34467460005544,,,,,,,,,ww,xx,2023-04-13_23h27.28.643,bandit task,2022.2.5,143.67609649673227,
34,0,34,0,,,,,,,,,,,,,,,,,39.74998619989492,39.74998619989492,39.74998619989492,39.74998619989492,39.74998619989492,w,0.338630500016734,40.094871500041336,40.10836629988626,40.10836629988626,,,,,,,,,ww,xx,2023-04-13_23h27.28.643,bandit task,2022.2.5,143.67609649673227,
35,0,35,0,,,,,,,,,,,,,,,,,40.514164000051096,40.514164000051096,40.514164000051096,40.514164000051096,40.514164000051096,o,0.07468360010534525,40.594489600043744,40.608219099929556,40.608219099929556,,,,,,,,,ww,xx,2023-04-13_23h27.28.643,bandit task,2022.2.5,143.67609649673227,
36,0,36,0,,,,,,,,,,,,,,,,,41.01407180004753,41.01407180004753,41.01407180004753,41.01407180004753,41.01407180004753,q,0.07931409985758364,41.10157270007767,41.115336099872366,41.115336099872366,,,,,,,,,ww,xx,2023-04-13_23h27.28.643,bandit task,2022.2.5,143.67609649673227,
37,0,37,0,,,,,,,,,,,,,,,,,41.5209848000668,41.5209848000668,41.5209848000668,41.5209848000668,41.5209848000668,p,0.0721153998747468,41.60144450003281,41.615414399886504,,,,,,,,,,ww,xx,2023-04-13_23h27.28.643,bandit task,2022.2.5,143.67609649673227,
38,0,38,0,,,,,,,,,,,,,,,,,42.02177420002408,42.02177420002408,42.02177420002408,42.02177420002408,42.02177420002408,w,0.3281890000216663,42.358474599896,42.37239519995637,42.37239519995637,,,,,,,,,ww,xx,2023-04-13_23h27.28.643,bandit task,2022.2.5,143.67609649673227,
39,0,39,0,,,,,0,0,0,0,,,,,,,,,42.778054900001734,42.778054900001734,42.778054900001734,42.778054900001734,42.778054900001734,o,0.45643969997763634,43.24054599995725,43.254249499877915,43.254249499877915,43.657659499906,43.657659499906,43.657659499906,21,space,1.6020853999070823,45.26894499990158,,ww,xx,2023-04-13_23h27.28.643,bandit task,2022.2.5,143.67609649673227,
39,0,39,0,,,,,,,,,,,,,,,,,,,,,,,,,,,,,,,,,,,ww,xx,2023-04-13_23h27.28.643,bandit task,2022.2.5,143.67609649673227,
40,0,40,0,0,0,0,0,,,,,,,,,45.671355800004676,45.671355800004676,space,1.018655400024727,,,,,,,,,,,,,,,,,,,ww,xx,2023-04-13_23h27.28.643,bandit task,2022.2.5,143.67609649673227,
40,0,40,0,,,,,,,,,,,,,,,,,46.70129580004141,46.70129580004141,46.70129580004141,46.70129580004141,46.70129580004141,q,0.6770738998893648,47.386267399881035,47.40033779991791,,,,,,,,,,ww,xx,2023-04-13_23h27.28.643,bandit task,2022.2.5,143.67609649673227,
41,0,41,0,,,,,,,,,,,,,,,,,47.80538729997352,47.80538729997352,47.80538729997352,47.80538729997352,47.80538729997352,w,0.27213479997590184,48.08740060008131,48.1014127000235,,,,,,,,,,ww,xx,2023-04-13_23h27.28.643,bandit task,2022.2.5,143.67609649673227,
42,0,42,0,,,,,,,,,,,,,,,,,48.506999999983236,48.506999999983236,48.506999999983236,48.506999999983236,48.506999999983236,o,0.22452550008893013,48.74054929986596,48.75433459994383,,,,,,,,,,ww,xx,2023-04-13_23h27.28.643,bandit task,2022.2.5,143.67609649673227,
43,0,43,0,,,,,,,,,,,,,,,,,49.159581599989906,49.159581599989906,49.159581599989906,49.159581599989906,49.159581599989906,q,0.1483088000677526,49.31661310000345,49.33081469987519,49.33081469987519,,,,,,,,,ww,xx,2023-04-13_23h27.28.643,bandit task,2022.2.5,143.67609649673227,
44,0,44,0,,,,,,,,,,,,,,,,,49.73595099989325,49.73595099989325,49.73595099989325,49.73595099989325,49.73595099989325,p,0.1329973000101745,49.879319899948314,49.89319840003736,49.89319840003736,,,,,,,,,ww,xx,2023-04-13_23h27.28.643,bandit task,2022.2.5,143.67609649673227,
45,0,45,0,,,,,,,,,,,,,,,,,50.298808600055054,50.298808600055054,50.298808600055054,50.298808600055054,50.298808600055054,w,0.12300239992327988,50.42801889986731,50.441679399926215,50.441679399926215,,,,,,,,,ww,xx,2023-04-13_23h27.28.643,bandit task,2022.2.5,143.67609649673227,
46,0,46,0,,,,,,,,,,,,,,,,,50.84717259998433,50.84717259998433,50.84717259998433,50.84717259998433,50.84717259998433,o,0.10813349997624755,50.96246589999646,50.97640990000218,50.97640990000218,,,,,,,,,ww,xx,2023-04-13_23h27.28.643,bandit task,2022.2.5,143.67609649673227,
47,0,47,0,,,,,,,,,,,,,,,,,51.38183219986968,51.38183219986968,51.38183219986968,51.38183219986968,51.38183219986968,q,0.07675629993900657,51.469510399969295,51.48350770003162,51.48350770003162,,,,,,,,,ww,xx,2023-04-13_23h27.28.643,bandit task,2022.2.5,143.67609649673227,
48,0,48,0,,,,,,,,,,,,,,,,,51.88872960000299,51.88872960000299,51.88872960000299,51.88872960000299,51.88872960000299,o,0.12352270004339516,52.01879050000571,52.032032599905506,52.032032599905506,,,,,,,,,ww,xx,2023-04-13_23h27.28.643,bandit task,2022.2.5,143.67609649673227,
49,0,49,0,,,,,,,,,,,,,,,,,52.43795230006799,52.43795230006799,52.43795230006799,52.43795230006799,52.43795230006799,w,0.08972140005789697,52.53221129998565,52.5460453000851,52.5460453000851,,,,,,,,,ww,xx,2023-04-13_23h27.28.643,bandit task,2022.2.5,143.67609649673227,
50,0,50,0,,,,,,,,,,,,,,,,,52.95130389998667,52.95130389998667,52.95130389998667,52.95130389998667,52.95130389998667,p,0.04868789995089173,53.004255699925125,53.01838489994407,53.01838489994407,,,,,,,,,ww,xx,2023-04-13_23h27.28.643,bandit task,2022.2.5,143.67609649673227,
51,0,51,0,,,,,,,,,,,,,,,,,53.423598000081256,53.423598000081256,53.423598000081256,53.423598000081256,53.423598000081256,q,0.1447644999716431,53.573612899985164,53.5876235999167,53.5876235999167,,,,,,,,,ww,xx,2023-04-13_23h27.28.643,bandit task,2022.2.5,143.67609649673227,
52,0,52,0,,,,,,,,,,,,,,,,,53.993101600091904,53.993101600091904,53.993101600091904,53.993101600091904,53.993101600091904,o,0.08114139991812408,54.08056310005486,54.094643099932,54.094643099932,,,,,,,,,ww,xx,2023-04-13_23h27.28.643,bandit task,2022.2.5,143.67609649673227,
53,0,53,0,,,,,,,,,,,,,,,,,54.500559099949896,54.500559099949896,54.500559099949896,54.500559099949896,54.500559099949896,w,0.1194454999640584,54.62920069997199,54.643113600090146,54.643113600090146,,,,,,,,,ww,xx,2023-04-13_23h27.28.643,bandit task,2022.2.5,143.67609649673227,
54,0,54,0,,,,,,,,,,,,,,,,,55.04832269996405,55.04832269996405,55.04832269996405,55.04832269996405,55.04832269996405,o,0.07856809999793768,55.13631869992241,55.15015839994885,,,,,,,,,,ww,xx,2023-04-13_23h27.28.643,bandit task,2022.2.5,143.67609649673227,
55,0,55,0,,,,,,,,,,,,,,,,,55.55557839991525,55.55557839991525,55.55557839991525,55.55557839991525,55.55557839991525,q,0.14403570001013577,55.70558919990435,55.7195351999253,55.7195351999253,,,,,,,,,ww,xx,2023-04-13_23h27.28.643,bandit task,2022.2.5,143.67609649673227,
56,0,56,0,,,,,,,,,,,,,,,,,56.12514039990492,56.12514039990492,56.12514039990492,56.12514039990492,56.12514039990492,p,0.11868180008605123,56.2481497998815,56.26116680004634,56.26116680004634,,,,,,,,,ww,xx,2023-04-13_23h27.28.643,bandit task,2022.2.5,143.67609649673227,
57,0,57,0,,,,,,,,,,,,,,,,,56.66664579999633,56.66664579999633,56.66664579999633,56.66664579999633,56.66664579999633,w,0.08841610001400113,56.761236999882385,56.77510319999419,,,,,,,,,,ww,xx,2023-04-13_23h27.28.643,bandit task,2022.2.5,143.67609649673227,
58,0,58,0,,,,,,,,,,,,,,,,,57.18045310000889,57.18045310000889,57.18045310000889,57.18045310000889,57.18045310000889,o,0.11823460017330945,57.302891599945724,57.316701400093734,57.316701400093734,,,,,,,,,ww,xx,2023-04-13_23h27.28.643,bandit task,2022.2.5,143.67609649673227,
59,0,59,0,,,,,0,0,0,0,,,,,,,,,57.722627100069076,57.722627100069076,57.722627100069076,57.722627100069076,57.722627100069076,q,0.11441919999197125,57.844643800053746,57.85867689992301,57.85867689992301,58.26157430000603,58.26157430000603,58.26157430000603,872,space,2.406476099975407,60.67899779998697,,ww,xx,2023-04-13_23h27.28.643,bandit task,2022.2.5,143.67609649673227,
59,0,59,0,,,,,,,,,,,,,,,,,,,,,,,,,,,,,,,,,,,ww,xx,2023-04-13_23h27.28.643,bandit task,2022.2.5,143.67609649673227,
60,0,60,0,0,0,0,0,,,,,,,,,61.081248299917206,61.081248299917206,space,2.4294579999987036,,,,,,,,,,,,,,,,,,,ww,xx,2023-04-13_23h27.28.643,bandit task,2022.2.5,143.67609649673227,
60,0,60,0,,,,,,,,,,,,,,,,,63.520896499976516,63.520896499976516,63.520896499976516,63.520896499976516,63.520896499976516,q,0.7062039999291301,64.23323359992355,64.24738939991221,64.24738939991221,,,,,,,,,ww,xx,2023-04-13_23h27.28.643,bandit task,2022.2.5,143.67609649673227,
61,0,61,0,,,,,,,,,,,,,,,,,64.65252889995463,64.65252889995463,64.65252889995463,64.65252889995463,64.65252889995463,w,0.15950409998185933,64.81702840002254,64.83061160007492,64.83061160007492,,,,,,,,,ww,xx,2023-04-13_23h27.28.643,bandit task,2022.2.5,143.67609649673227,
62,0,62,0,,,,,,,,,,,,,,,,,65.23582579987124,65.23582579987124,65.23582579987124,65.23582579987124,65.23582579987124,o,0.14100120007060468,65.3864251000341,65.40026649995707,,,,,,,,,,ww,xx,2023-04-13_23h27.28.643,bandit task,2022.2.5,143.67609649673227,
63,0,63,0,,,,,,,,,,,,,,,,,65.80533439991996,65.80533439991996,65.80533439991996,65.80533439991996,65.80533439991996,q,0.09705490013584495,65.90688330004923,65.92090469994582,65.92090469994582,,,,,,,,,ww,xx,2023-04-13_23h27.28.643,bandit task,2022.2.5,143.67609649673227,
64,0,64,0,,,,,,,,,,,,,,,,,66.32609539991245,66.32609539991245,66.32609539991245,66.32609539991245,66.32609539991245,p,0.14535180013626814,66.47660010005347,66.49033860000782,66.49033860000782,,,,,,,,,ww,xx,2023-04-13_23h27.28.643,bandit task,2022.2.5,143.67609649673227,
65,0,65,0,,,,,,,,,,,,,,,,,66.89568779990077,66.89568779990077,66.89568779990077,66.89568779990077,66.89568779990077,p,0.14033190021291375,67.04591479990631,67.05976530001499,,,,,,,,,,ww,xx,2023-04-13_23h27.28.643,bandit task,2022.2.5,143.67609649673227,
66,0,66,0,,,,,,,,,,,,,,,,,67.46543239988387,67.46543239988387,67.46543239988387,67.46543239988387,67.46543239988387,p,0.11308340006507933,67.5875820000656,67.60151559999213,67.60151559999213,,,,,,,,,ww,xx,2023-04-13_23h27.28.643,bandit task,2022.2.5,143.67609649673227,
67,0,67,0,,,,,,,,,,,,,,,,,68.0072731000837,68.0072731000837,68.0072731000837,68.0072731000837,68.0072731000837,w,0.14925519982352853,68.16462219995447,68.17791169998236,68.17791169998236,,,,,,,,,ww,xx,2023-04-13_23h27.28.643,bandit task,2022.2.5,143.67609649673227,
68,0,68,0,,,,,,,,,,,,,,,,,68.58342360006645,68.58342360006645,68.58342360006645,68.58342360006645,68.58342360006645,o,0.12069289991632104,68.71237040008418,68.72653079987504,68.72653079987504,,,,,,,,,ww,xx,2023-04-13_23h27.28.643,bandit task,2022.2.5,143.67609649673227,
69,0,69,0,,,,,,,,,,,,,,,,,69.13179440004751,69.13179440004751,69.13179440004751,69.13179440004751,69.13179440004751,q,0.024198299972340465,69.16388919996098,69.17798859998584,69.17798859998584,,,,,,,,,ww,xx,2023-04-13_23h27.28.643,bandit task,2022.2.5,143.67609649673227,
70,0,70,0,,,,,,,,,,,,,,,,,69.58325999998488,69.58325999998488,69.58325999998488,69.58325999998488,69.58325999998488,p,0.026044299826025963,69.61590459989384,69.62922049988993,69.62922049988993,,,,,,,,,ww,xx,2023-04-13_23h27.28.643,bandit task,2022.2.5,143.67609649673227,
71,0,71,0,,,,,,,,,,,,,,,,,70.03503379994072,70.03503379994072,70.03503379994072,70.03503379994072,70.03503379994072,p,0.07284380006603897,70.1153754000552,70.1291457999032,70.1291457999032,,,,,,,,,ww,xx,2023-04-13_23h27.28.643,bandit task,2022.2.5,143.67609649673227,
72,0,72,0,,,,,,,,,,,,,,,,,70.53484619990923,70.53484619990923,70.53484619990923,70.53484619990923,70.53484619990923,w,0.08127439999952912,70.62265540007502,70.63624559994787,70.63624559994787,,,,,,,,,ww,xx,2023-04-13_23h27.28.643,bandit task,2022.2.5,143.67609649673227,
73,0,73,0,,,,,,,,,,,,,,,,,71.04174409992993,71.04174409992993,71.04174409992993,71.04174409992993,71.04174409992993,o,0.09510000003501773,71.14306070003659,71.15734159993008,71.15734159993008,,,,,,,,,ww,xx,2023-04-13_23h27.28.643,bandit task,2022.2.5,143.67609649673227,
74,0,74,0,,,,,,,,,,,,,,,,,71.56246459996328,71.56246459996328,71.56246459996328,71.56246459996328,71.56246459996328,q,0.04239460011012852,71.61534680007026,71.62931160000153,,,,,,,,,,ww,xx,2023-04-13_23h27.28.643,bandit task,2022.2.5,143.67609649673227,
75,0,75,0,,,,,,,,,,,,,,,,,72.03557939990424,72.03557939990424,72.03557939990424,72.03557939990424,72.03557939990424,p,0.050276099937036633,72.09446440008469,72.10836389986798,72.10836389986798,,,,,,,,,ww,xx,2023-04-13_23h27.28.643,bandit task,2022.2.5,143.67609649673227,
76,0,76,0,,,,,,,,,,,,,,,,,72.51402570004575,72.51402570004575,72.51402570004575,72.51402570004575,72.51402570004575,p,0.031451799906790257,72.55282049998641,72.56671980000101,72.56671980000101,,,,,,,,,ww,xx,2023-04-13_23h27.28.643,bandit task,2022.2.5,143.67609649673227,
77,0,77,0,,,,,,,,,,,,,,,,,72.97212420008145,72.97212420008145,72.97212420008145,72.97212420008145,72.97212420008145,q,0.013519599800929427,72.9901652999688,73.00407480006106,,,,,,,,,,ww,xx,2023-04-13_23h27.28.643,bandit task,2022.2.5,143.67609649673227,
78,0,78,0,,,,,,,,,,,,,,,,,73.40960610006005,73.40960610006005,73.40960610006005,73.40960610006005,73.40960610006005,p,0.017430400010198355,73.43493800004944,73.44861550000496,,,,,,,,,,ww,xx,2023-04-13_23h27.28.643,bandit task,2022.2.5,143.67609649673227,
79,0,79,0,,,,,0,0,0,0,,,,,,,,,73.85449100006372,73.85449100006372,73.85449100006372,73.85449100006372,73.85449100006372,w,0.015387099934741855,73.87904349993914,73.89314689999446,73.89314689999446,74.29628599993885,74.29628599993885,74.29628599993885,2830 ,space,3.1816306998953223,77.49059599987231,,ww,xx,2023-04-13_23h27.28.643,bandit task,2022.2.5,143.67609649673227,
79,0,79,0,,,,,,,,,,,,,,,,,,,,,,,,,,,,,,,,,,,ww,xx,2023-04-13_23h27.28.643,bandit task,2022.2.5,143.67609649673227,
80,0,80,0,0,0,0,0,,,,,,,,,77.89412630000152,77.89412630000152,space,2.668426999822259,,,,,,,,,,,,,,,,,,,ww,xx,2023-04-13_23h27.28.643,bandit task,2022.2.5,143.67609649673227,
80,0,80,0,,,,,,,,,,,,,,,,,80.57611760008149,80.57611760008149,80.57611760008149,80.57611760008149,80.57611760008149,q,0.5901306001469493,81.17133080004714,81.18474570009857,81.18474570009857,,,,,,,,,ww,xx,2023-04-13_23h27.28.643,bandit task,2022.2.5,143.67609649673227,
81,0,81,0,,,,,,,,,,,,,,,,,81.59026960004121,81.59026960004121,81.59026960004121,81.59026960004121,81.59026960004121,o,0.001119100023061037,81.60135779995471,81.6153535998892,,,,,,,,,,ww,xx,2023-04-13_23h27.28.643,bandit task,2022.2.5,143.67609649673227,
82,0,82,0,,,,,,,,,,,,,,,,,82.0207809000276,82.0207809000276,82.0207809000276,82.0207809000276,82.0207809000276,q,0.02682160004042089,82.05287429993041,82.06669680005871,,,,,,,,,,ww,xx,2023-04-13_23h27.28.643,bandit task,2022.2.5,143.67609649673227,
83,0,83,0,,,,,,,,,,,,,,,,,82.47221700008959,82.47221700008959,82.47221700008959,82.47221700008959,82.47221700008959,p,0.008967999834567308,82.49040240002796,82.50425669993274,,,,,,,,,,ww,xx,2023-04-13_23h27.28.643,bandit task,2022.2.5,143.67609649673227,
84,0,84,0,,,,,,,,,,,,,,,,,82.9095079000108,82.9095079000108,82.9095079000108,82.9095079000108,82.9095079000108,o,0.4222899000160396,83.33743260009214,83.35140249994583,83.35140249994583,,,,,,,,,ww,xx,2023-04-13_23h27.28.643,bandit task,2022.2.5,143.67609649673227,
85,0,85,0,,,,,,,,,,,,,,,,,83.7572274999693,83.7572274999693,83.7572274999693,83.7572274999693,83.7572274999693,q,0.08214100007899106,83.84433689992875,83.85839720000513,83.85839720000513,,,,,,,,,ww,xx,2023-04-13_23h27.28.643,bandit task,2022.2.5,143.67609649673227,
86,0,86,0,,,,,,,,,,,,,,,,,84.26378150004894,84.26378150004894,84.26378150004894,84.26378150004894,84.26378150004894,p,0.06202620011754334,84.33045020001009,84.3445607998874,84.3445607998874,,,,,,,,,ww,xx,2023-04-13_23h27.28.643,bandit task,2022.2.5,143.67609649673227,
87,0,87,0,,,,,,,,,,,,,,,,,84.74992950004525,84.74992950004525,84.74992950004525,84.74992950004525,84.74992950004525,w,0.12414489989168942,84.8790998000186,84.89324419992045,84.89324419992045,,,,,,,,,ww,xx,2023-04-13_23h27.28.643,bandit task,2022.2.5,143.67609649673227,
88,0,88,0,,,,,,,,,,,,,,,,,85.29826970002614,85.29826970002614,85.29826970002614,85.29826970002614,85.29826970002614,o,0.03604340017773211,85.34430929995142,85.3582572999876,85.3582572999876,,,,,,,,,ww,xx,2023-04-13_23h27.28.643,bandit task,2022.2.5,143.67609649673227,
89,0,89,0,,,,,,,,,,,,,,,,,85.76388660003431,85.76388660003431,85.76388660003431,85.76388660003431,85.76388660003431,q,0.031579599948599935,85.8027512000408,85.81674770009704,85.81674770009704,,,,,,,,,ww,xx,2023-04-13_23h27.28.643,bandit task,2022.2.5,143.67609649673227,
90,0,90,0,,,,,,,,,,,,,,,,,86.22211070009507,86.22211070009507,86.22211070009507,86.22211070009507,86.22211070009507,p,0.023335999809205532,86.25405490002595,86.26823829999194,86.26823829999194,,,,,,,,,ww,xx,2023-04-13_23h27.28.643,bandit task,2022.2.5,143.67609649673227,
91,0,91,0,,,,,,,,,,,,,,,,,86.67407429986633,86.67407429986633,86.67407429986633,86.67407429986633,86.67407429986633,w,0.01822649990208447,86.69856879999861,86.71256190002896,86.71256190002896,,,,,,,,,ww,xx,2023-04-13_23h27.28.643,bandit task,2022.2.5,143.67609649673227,
92,0,92,0,,,,,,,,,,,,,,,,,87.11773899989203,87.11773899989203,87.11773899989203,87.11773899989203,87.11773899989203,o,0.42191920010372996,87.54597439989448,87.5600866000168,87.5600866000168,,,,,,,,,ww,xx,2023-04-13_23h27.28.643,bandit task,2022.2.5,143.67609649673227,
93,0,93,0,,,,,,,,,,,,,,,,,87.96530480007641,87.96530480007641,87.96530480007641,87.96530480007641,87.96530480007641,p,0.4451001000124961,88.420805899892,88.434814899927,,,,,,,,,,ww,xx,2023-04-13_23h27.28.643,bandit task,2022.2.5,143.67609649673227,
94,0,94,0,,,,,,,,,,,,,,,,,88.84003639989533,88.84003639989533,88.84003639989533,88.84003639989533,88.84003639989533,w,0.025921100052073598,88.87219129991718,88.88616329990327,88.88616329990327,,,,,,,,,ww,xx,2023-04-13_23h27.28.643,bandit task,2022.2.5,143.67609649673227,
95,0,95,0,,,,,,,,,,,,,,,,,89.2914750999771,89.2914750999771,89.2914750999771,89.2914750999771,89.2914750999771,o,0.029869799967855215,89.33072369988076,89.34459770005196,,,,,,,,,,ww,xx,2023-04-13_23h27.28.643,bandit task,2022.2.5,143.67609649673227,
96,0,96,0,,,,,,,,,,,,,,,,,89.7497167000547,89.7497167000547,89.7497167000547,89.7497167000547,89.7497167000547,q,0.03637499990873039,89.79591950005852,89.80970009998418,,,,,,,,,,ww,xx,2023-04-13_23h27.28.643,bandit task,2022.2.5,143.67609649673227,
97,0,97,0,,,,,,,,,,,,,,,,,90.2151206000708,90.2151206000708,90.2151206000708,90.2151206000708,90.2151206000708,p,0.005019500153139234,90.22632719995454,90.24029159988277,90.24029159988277,,,,,,,,,ww,xx,2023-04-13_23h27.28.643,bandit task,2022.2.5,143.67609649673227,
98,0,98,0,,,,,,,,,,,,,,,,,90.6457954000216,90.6457954000216,90.6457954000216,90.6457954000216,90.6457954000216,o,0.3993536999914795,91.05323479999788,91.06668909988366,91.06668909988366,,,,,,,,,ww,xx,2023-04-13_23h27.28.643,bandit task,2022.2.5,143.67609649673227,
99,0,99,0,,,,,0,0,0,0,,,,,,,,,91.47203719988465,91.47203719988465,91.47203719988465,91.47203719988465,91.47203719988465,q,0.10164680005982518,91.58043189998716,91.59434930002317,91.59434930002317,91.99788110004738,91.99788110004738,91.99788110004738,9598,space,3.2055464999284595,95.21353970002383,,ww,xx,2023-04-13_23h27.28.643,bandit task,2022.2.5,143.67609649673227,
99,0,99,0,,,,,,,,,,,,,,,,,,,,,,,,,,,,,,,,,,,ww,xx,2023-04-13_23h27.28.643,bandit task,2022.2.5,143.67609649673227,
100,0,100,0,0,0,0,0,,,,,,,,,95.61684220004827,95.61684220004827,space,3.194310999941081,,,,,,,,,,,,,,,,,,,ww,xx,2023-04-13_23h27.28.643,bandit task,2022.2.5,143.67609649673227,
100,0,100,0,,,,,,,,,,,,,,,,,98.82604969991371,98.82604969991371,98.82604969991371,98.82604969991371,98.82604969991371,q,0.4744458000641316,99.30968090007082,99.32364449999295,99.32364449999295,,,,,,,,,ww,xx,2023-04-13_23h27.28.643,bandit task,2022.2.5,143.67609649673227,
101,0,101,0,,,,,,,,,,,,,,,,,99.72902229987085,99.72902229987085,99.72902229987085,99.72902229987085,99.72902229987085,w,0.14793529990129173,99.88607800006866,99.90012670005672,,,,,,,,,,ww,xx,2023-04-13_23h27.28.643,bandit task,2022.2.5,143.67609649673227,
102,0,102,0,,,,,,,,,,,,,,,,,100.30569209996611,100.30569209996611,100.30569209996611,100.30569209996611,100.30569209996611,o,0.0625906998757273,100.37911470001563,100.39321719994769,100.39321719994769,,,,,,,,,ww,xx,2023-04-13_23h27.28.643,bandit task,2022.2.5,143.67609649673227,
103,0,103,0,,,,,,,,,,,,,,,,,100.79838629998267,100.79838629998267,100.79838629998267,100.79838629998267,100.79838629998267,p,0.0920652998611331,100.90004219999537,100.91389680001885,,,,,,,,,,ww,xx,2023-04-13_23h27.28.643,bandit task,2022.2.5,143.67609649673227,
104,0,104,0,,,,,,,,,,,,,,,,,101.31915530003607,101.31915530003607,101.31915530003607,101.31915530003607,101.31915530003607,q,0.05050810007378459,101.37898060004227,101.39313900005072,101.39313900005072,,,,,,,,,ww,xx,2023-04-13_23h27.28.643,bandit task,2022.2.5,143.67609649673227,
105,0,105,0,,,,,,,,,,,,,,,,,101.79903419991024,101.79903419991024,101.79903419991024,101.79903419991024,101.79903419991024,o,0.4796419001650065,102.28884209995158,102.30287109990604,,,,,,,,,,ww,xx,2023-04-13_23h27.28.643,bandit task,2022.2.5,143.67609649673227,
106,0,106,0,,,,,,,,,,,,,,,,,102.70814209990203,102.70814209990203,102.70814209990203,102.70814209990203,102.70814209990203,w,0.11554190004244447,102.83061589999124,102.84426919999532,102.84426919999532,,,,,,,,,ww,xx,2023-04-13_23h27.28.643,bandit task,2022.2.5,143.67609649673227,
107,0,107,0,,,,,,,,,,,,,,,,,103.24980330001563,103.24980330001563,103.24980330001563,103.24980330001563,103.24980330001563,p,0.07840709993615746,103.33814010000788,103.35135370003991,103.35135370003991,,,,,,,,,ww,xx,2023-04-13_23h27.28.643,bandit task,2022.2.5,143.67609649673227,
108,0,108,0,,,,,,,,,,,,,,,,,103.75658709998243,103.75658709998243,103.75658709998243,103.75658709998243,103.75658709998243,p,0.029552199877798557,103.79582959995605,103.80977159994654,103.80977159994654,,,,,,,,,ww,xx,2023-04-13_23h27.28.643,bandit task,2022.2.5,143.67609649673227,
109,0,109,0,,,,,,,,,,,,,,,,,104.21578130009584,104.21578130009584,104.21578130009584,104.21578130009584,104.21578130009584,q,0.0693934999871999,104.28921049996279,104.30263739987276,104.30263739987276,,,,,,,,,ww,xx,2023-04-13_23h27.28.643,bandit task,2022.2.5,143.67609649673227,
110,0,110,0,,,,,,,,,,,,,,,,,104.70858710003085,104.70858710003085,104.70858710003085,104.70858710003085,104.70858710003085,p,0.03426199988462031,104.74732069997117,104.76105229998939,104.76105229998939,,,,,,,,,ww,xx,2023-04-13_23h27.28.643,bandit task,2022.2.5,143.67609649673227,
111,0,111,0,,,,,,,,,,,,,,,,,105.16722070006654,105.16722070006654,105.16722070006654,105.16722070006654,105.16722070006654,w,0.028876399854198098,105.20530680008233,105.21934539987706,105.21934539987706,,,,,,,,,ww,xx,2023-04-13_23h27.28.643,bandit task,2022.2.5,143.67609649673227,
112,0,112,0,,,,,,,,,,,,,,,,,105.6250585000962,105.6250585000962,105.6250585000962,105.6250585000962,105.6250585000962,o,0.3940761999692768,106.02489349991083,106.0389109000098,106.0389109000098,,,,,,,,,ww,xx,2023-04-13_23h27.28.643,bandit task,2022.2.5,143.67609649673227,
113,0,113,0,,,,,,,,,,,,,,,,,106.44430309999734,106.44430309999734,106.44430309999734,106.44430309999734,106.44430309999734,q,0.0829556998796761,106.5323566000443,106.54582359991036,106.54582359991036,,,,,,,,,ww,xx,2023-04-13_23h27.28.643,bandit task,2022.2.5,143.67609649673227,
114,0,114,0,,,,,,,,,,,,,,,,,106.95117540005594,106.95117540005594,106.95117540005594,106.95117540005594,106.95117540005594,p,0.05888490006327629,107.01828059996478,107.03206379991025,107.03206379991025,,,,,,,,,ww,xx,2023-04-13_23h27.28.643,bandit task,2022.2.5,143.67609649673227,
115,0,115,0,,,,,,,,,,,,,,,,,107.4374202999752,107.4374202999752,107.4374202999752,107.4374202999752,107.4374202999752,w,0.09291050001047552,107.53864809987135,107.55261059990153,107.55261059990153,,,,,,,,,ww,xx,2023-04-13_23h27.28.643,bandit task,2022.2.5,143.67609649673227,
116,0,116,0,,,,,,,,,,,,,,,,,107.95811900007538,107.95811900007538,107.95811900007538,107.95811900007538,107.95811900007538,o,0.025902000023052096,107.99013149994425,108.00430139992386,108.00430139992386,,,,,,,,,ww,xx,2023-04-13_23h27.28.643,bandit task,2022.2.5,143.67609649673227,
117,0,117,0,,,,,,,,,,,,,,,,,108.40941939991899,108.40941939991899,108.40941939991899,108.40941939991899,108.40941939991899,q,0.0649876999668777,108.48320979997516,108.49744559987448,108.49744559987448,,,,,,,,,ww,xx,2023-04-13_23h27.28.643,bandit task,2022.2.5,143.67609649673227,
118,0,118,0,,,,,,,,,,,,,,,,,108.90259950002655,108.90259950002655,108.90259950002655,108.90259950002655,108.90259950002655,p,0.01301180012524128,108.92089969990775,108.93471090006642,108.93471090006642,,,,,,,,,ww,xx,2023-04-13_23h27.28.643,bandit task,2022.2.5,143.67609649673227,
119,0,119,0,,,,,0,0,0,0,,,,,,,,,109.33989150007255,109.33989150007255,109.33989150007255,109.33989150007255,109.33989150007255,w,0.01659239991568029,109.36510739987716,109.37921410007402,109.37921410007402,109.78227069997229,109.78227069997229,109.78227069997229,5573,space,2.506941600004211,112.29714079992846,,ww,xx,2023-04-13_23h27.28.643,bandit task,2022.2.5,143.67609649673227,
119,0,119,0,,,,,,,,,,,,,,,,,,,,,,,,,,,,,,,,,,,ww,xx,2023-04-13_23h27.28.643,bandit task,2022.2.5,143.67609649673227,
120,0,120,0,0,0,0,0,,,,,,,,,112.6991101000458,112.6991101000458,space,2.0570362000726163,,,,,,,,,,,,,,,,,,,ww,xx,2023-04-13_23h27.28.643,bandit task,2022.2.5,143.67609649673227,
120,0,120,0,,,,,,,,,,,,,,,,,114.77070880006067,114.77070880006067,114.77070880006067,114.77070880006067,114.77070880006067,q,0.9794857001397759,115.75422980007716,115.76803159993142,115.76803159993142,,,,,,,,,ww,xx,2023-04-13_23h27.28.643,bandit task,2022.2.5,143.67609649673227,
121,0,121,0,,,,,,,,,,,,,,,,,116.17338120006025,116.17338120006025,116.17338120006025,116.17338120006025,116.17338120006025,o,0.0019294999074190855,116.18486999999732,116.19857600005344,116.19857600005344,,,,,,,,,ww,xx,2023-04-13_23h27.28.643,bandit task,2022.2.5,143.67609649673227,
122,0,122,0,,,,,,,,,,,,,,,,,116.60414399998263,116.60414399998263,116.60414399998263,116.60414399998263,116.60414399998263,w,0.02999820001423359,116.64301500003785,116.65710720000789,,,,,,,,,,ww,xx,2023-04-13_23h27.28.643,bandit task,2022.2.5,143.67609649673227,
123,0,123,0,,,,,,,,,,,,,,,,,117.06237619998865,117.06237619998865,117.06237619998865,117.06237619998865,117.06237619998865,p,0.02642129990272224,117.09470580006018,117.10830760002136,117.10830760002136,,,,,,,,,ww,xx,2023-04-13_23h27.28.643,bandit task,2022.2.5,143.67609649673227,
124,0,124,0,,,,,,,,,,,,,,,,,117.51363179995678,117.51363179995678,117.51363179995678,117.51363179995678,117.51363179995678,o,0.37763980007730424,117.90001989994198,117.91395829990506,117.91395829990506,,,,,,,,,ww,xx,2023-04-13_23h27.28.643,bandit task,2022.2.5,143.67609649673227,
125,0,125,0,,,,,,,,,,,,,,,,,118.31920289993286,118.31920289993286,118.31920289993286,118.31920289993286,118.31920289993286,q,0.12267229985445738,118.44839100004174,118.46232909988612,118.46232909988612,,,,,,,,,ww,xx,2023-04-13_23h27.28.643,bandit task,2022.2.5,143.67609649673227,
126,0,126,0,,,,,,,,,,,,,,,,,118.8677306000609,118.8677306000609,118.8677306000609,118.8677306000609,118.8677306000609,p,0.07604549988172948,118.94862939999439,118.96243379986845,,,,,,,,,,ww,xx,2023-04-13_23h27.28.643,bandit task,2022.2.5,143.67609649673227,
127,0,127,0,,,,,,,,,,,,,,,,,119.36818309989758,119.36818309989758,119.36818309989758,119.36818309989758,119.36818309989758,w,0.06884720013476908,119.44146210001782,119.45553130004555,119.45553130004555,,,,,,,,,ww,xx,2023-04-13_23h27.28.643,bandit task,2022.2.5,143.67609649673227,
128,0,128,0,,,,,,,,,,,,,,,,,119.86063849995844,119.86063849995844,119.86063849995844,119.86063849995844,119.86063849995844,o,0.019680999917909503,119.88614799990319,119.89984759991057,119.89984759991057,,,,,,,,,ww,xx,2023-04-13_23h27.28.643,bandit task,2022.2.5,143.67609649673227,
129,0,129,0,,,,,,,,,,,,,,,,,120.30536750005558,120.30536750005558,120.30536750005558,120.30536750005558,120.30536750005558,q,0.04907479998655617,120.35831689997576,120.37223559990525,120.37223559990525,,,,,,,,,ww,xx,2023-04-13_23h27.28.643,bandit task,2022.2.5,143.67609649673227,
130,0,130,0,,,,,,,,,,,,,,,,,120.77734840009362,120.77734840009362,120.77734840009362,120.77734840009362,120.77734840009362,w,0.44069559988565743,121.22676629992202,121.2401300999336,121.2401300999336,,,,,,,,,ww,xx,2023-04-13_23h27.28.643,bandit task,2022.2.5,143.67609649673227,
131,0,131,0,,,,,,,,,,,,,,,,,121.64558149990626,121.64558149990626,121.64558149990626,121.64558149990626,121.64558149990626,o,0.0867713000625372,121.74031100003049,121.75414069998078,121.75414069998078,,,,,,,,,ww,xx,2023-04-13_23h27.28.643,bandit task,2022.2.5,143.67609649673227,
132,0,132,0,,,,,,,,,,,,,,,,,122.1595634999685,122.1595634999685,122.1595634999685,122.1595634999685,122.1595634999685,q,0.07489489996805787,122.24004799989052,122.2539919000119,122.2539919000119,,,,,,,,,ww,xx,2023-04-13_23h27.28.643,bandit task,2022.2.5,143.67609649673227,
133,0,133,0,,,,,,,,,,,,,,,,,122.6593577999156,122.6593577999156,122.6593577999156,122.6593577999156,122.6593577999156,p,0.04151730006560683,122.70706670009531,122.71917330008,122.71917330008,,,,,,,,,ww,xx,2023-04-13_23h27.28.643,bandit task,2022.2.5,143.67609649673227,
134,0,134,0,,,,,,,,,,,,,,,,,123.12557810009457,123.12557810009457,123.12557810009457,123.12557810009457,123.12557810009457,w,0.04172560013830662,123.17772109992802,123.19155719992705,,,,,,,,,,ww,xx,2023-04-13_23h27.28.643,bandit task,2022.2.5,143.67609649673227,
135,0,135,0,,,,,,,,,,,,,,,,,123.5972384000197,123.5972384000197,123.5972384000197,123.5972384000197,123.5972384000197,o,0.05897810007445514,123.66393140004948,123.67776350001805,123.67776350001805,,,,,,,,,ww,xx,2023-04-13_23h27.28.643,bandit task,2022.2.5,143.67609649673227,
136,0,136,0,,,,,,,,,,,,,,,,,124.0829910999164,124.0829910999164,124.0829910999164,124.0829910999164,124.0829910999164,q,0.11167229991406202,124.19866059999913,124.21237389999442,124.21237389999442,,,,,,,,,ww,xx,2023-04-13_23h27.28.643,bandit task,2022.2.5,143.67609649673227,
137,0,137,0,,,,,,,,,,,,,,,,,124.61830090009607,124.61830090009607,124.61830090009607,124.61830090009607,124.61830090009607,p,0.10742989997379482,124.73337089992128,124.74711539992131,124.74711539992131,,,,,,,,,ww,xx,2023-04-13_23h27.28.643,bandit task,2022.2.5,143.67609649673227,
138,0,138,0,,,,,,,,,,,,,,,,,125.15254290006123,125.15254290006123,125.15254290006123,125.15254290006123,125.15254290006123,w,0.04103560000658035,125.1985651999712,125.2124367998913,125.2124367998913,,,,,,,,,ww,xx,2023-04-13_23h27.28.643,bandit task,2022.2.5,143.67609649673227,
139,0,139,0,,,,,0,0,0,0,,,,,,,,,125.6182166999206,125.6182166999206,125.6182166999206,125.6182166999206,125.6182166999206,o,0.07550720009021461,125.69858799991198,125.71236480004154,125.71236480004154,126.11547910002992,126.11547910002992,126.11547910002992,2,space,2.312585399951786,128.43622999987565,,ww,xx,2023-04-13_23h27.28.643,bandit task,2022.2.5,143.67609649673227,
139,0,139,0,,,,,,,,,,,,,,,,,,,,,,,,,,,,,,,,,,,ww,xx,2023-04-13_23h27.28.643,bandit task,2022.2.5,143.67609649673227,
140,0,140,0,0,0,0,0,,,,,,,,,128.84015539987013,128.84015539987013,space,2.2744346999097615,,,,,,,,,,,,,,,,,,,ww,xx,2023-04-13_23h27.28.643,bandit task,2022.2.5,143.67609649673227,
140,0,140,0,,,,,,,,,,,,,,,,,131.12496710009873,131.12496710009873,131.12496710009873,131.12496710009873,131.12496710009873,q,1.0255867999512702,132.15711640007794,132.17081129993312,132.17081129993312,,,,,,,,,ww,xx,2023-04-13_23h27.28.643,bandit task,2022.2.5,143.67609649673227,
141,0,141,0,,,,,,,,,,,,,,,,,132.57644309988245,132.57644309988245,132.57644309988245,132.57644309988245,132.57644309988245,q,0.3952635999303311,132.9761995000299,132.99014390003867,132.99014390003867,,,,,,,,,ww,xx,2023-04-13_23h27.28.643,bandit task,2022.2.5,143.67609649673227,
142,0,142,0,,,,,,,,,,,,,,,,,133.39584750006907,133.39584750006907,133.39584750006907,133.39584750006907,133.39584750006907,p,0.07637130003422499,133.47646780009381,133.49024519999512,133.49024519999512,,,,,,,,,ww,xx,2023-04-13_23h27.28.643,bandit task,2022.2.5,143.67609649673227,
143,0,143,0,,,,,,,,,,,,,,,,,133.89601489994675,133.89601489994675,133.89601489994675,133.89601489994675,133.89601489994675,o,0.37589000002481043,134.28232600004412,134.2957186999265,134.2957186999265,,,,,,,,,ww,xx,2023-04-13_23h27.28.643,bandit task,2022.2.5,143.67609649673227,
144,0,144,0,,,,,,,,,,,,,,,,,134.70101960003376,134.70101960003376,134.70101960003376,134.70101960003376,134.70101960003376,q,0.368169300025329,135.0762038999237,135.08804709999822,135.08804709999822,,,,,,,,,ww,xx,2023-04-13_23h27.28.643,bandit task,2022.2.5,143.67609649673227,
145,0,145,0,,,,,,,,,,,,,,,,,135.4927501999773,135.4927501999773,135.4927501999773,135.4927501999773,135.4927501999773,w,0.04014090006239712,135.5391674998682,135.55274030007422,135.55274030007422,,,,,,,,,ww,xx,2023-04-13_23h27.28.643,bandit task,2022.2.5,143.67609649673227,
146,0,146,0,,,,,,,,,,,,,,,,,135.95801529986784,135.95801529986784,135.95801529986784,135.95801529986784,135.95801529986784,w,0.1720878998748958,136.13599810004234,136.1500565998722,136.1500565998722,,,,,,,,,ww,xx,2023-04-13_23h27.28.643,bandit task,2022.2.5,143.67609649673227,
147,0,147,0,,,,,,,,,,,,,,,,,136.55546589987352,136.55546589987352,136.55546589987352,136.55546589987352,136.55546589987352,w,0.06726380018517375,136.6289770998992,136.64296630001627,136.64296630001627,,,,,,,,,ww,xx,2023-04-13_23h27.28.643,bandit task,2022.2.5,143.67609649673227,
148,0,148,0,,,,,,,,,,,,,,,,,137.04895600001328,137.04895600001328,137.04895600001328,137.04895600001328,137.04895600001328,w,0.2242203000932932,137.2817329999525,137.29575970000587,137.29575970000587,,,,,,,,,ww,xx,2023-04-13_23h27.28.643,bandit task,2022.2.5,143.67609649673227,
149,0,149,0,,,,,,,,,,,,,,,,,137.7012231000699,137.7012231000699,137.7012231000699,137.7012231000699,137.7012231000699,q,0.3640448998194188,138.07356090005487,138.0873658999335,,,,,,,,,,ww,xx,2023-04-13_23h27.28.643,bandit task,2022.2.5,143.67609649673227,
150,0,150,0,,,,,,,,,,,,,,,,,138.49312380002812,138.49312380002812,138.49312380002812,138.49312380002812,138.49312380002812,o,0.10357430018484592,138.60118380002677,138.61514879995957,138.61514879995957,,,,,,,,,ww,xx,2023-04-13_23h27.28.643,bandit task,2022.2.5,143.67609649673227,
151,0,151,0,,,,,,,,,,,,,,,,,139.020596700022,139.020596700022,139.020596700022,139.020596700022,139.020596700022,q,0.11732580000534654,139.14299890003167,139.15673619997688,139.15673619997688,,,,,,,,,ww,xx,2023-04-13_23h27.28.643,bandit task,2022.2.5,143.67609649673227,
152,0,152,0,,,,,,,,,,,,,,,,,139.56203679996543,139.56203679996543,139.56203679996543,139.56203679996543,139.56203679996543,p,0.08235469995997846,139.6497724999208,139.66370379994623,139.66370379994623,,,,,,,,,ww,xx,2023-04-13_23h27.28.643,bandit task,2022.2.5,143.67609649673227,
153,0,153,0,,,,,,,,,,,,,,,,,140.0689326999709,140.0689326999709,140.0689326999709,140.0689326999709,140.0689326999709,q,0.19336539995856583,140.26797960000113,140.2816719999537,140.2816719999537,,,,,,,,,ww,xx,2023-04-13_23h27.28.643,bandit task,2022.2.5,143.67609649673227,
154,0,154,0,,,,,,,,,,,,,,,,,140.6873331000097,140.6873331000097,140.6873331000097,140.6873331000097,140.6873331000097,o,0.15063780010677874,140.84417980001308,140.8582246999722,140.8582246999722,,,,,,,,,ww,xx,2023-04-13_23h27.28.643,bandit task,2022.2.5,143.67609649673227,
155,0,155,0,,,,,,,,,,,,,,,,,141.26373969996348,141.26373969996348,141.26373969996348,141.26373969996348,141.26373969996348,q,0.06959609990008175,141.3443505000323,141.35818889993243,141.35818889993243,,,,,,,,,ww,xx,2023-04-13_23h27.28.643,bandit task,2022.2.5,143.67609649673227,
156,0,156,0,,,,,,,,,,,,,,,,,141.76352949999273,141.76352949999273,141.76352949999273,141.76352949999273,141.76352949999273,p,0.09428259986452758,141.8658306999132,141.87922589993104,141.87922589993104,,,,,,,,,ww,xx,2023-04-13_23h27.28.643,bandit task,2022.2.5,143.67609649673227,
157,0,157,0,,,,,,,,,,,,,,,,,142.2844670000486,142.2844670000486,142.2844670000486,142.2844670000486,142.2844670000486,q,0.012441199971362948,142.30258499993943,142.3165271000471,142.3165271000471,,,,,,,,,ww,xx,2023-04-13_23h27.28.643,bandit task,2022.2.5,143.67609649673227,
158,0,158,0,,,,,,,,,,,,,,,,,142.7218611999415,142.7218611999415,142.7218611999415,142.7218611999415,142.7218611999415,o,0.02411180012859404,142.75397929991595,142.76793349999934,142.76793349999934,,,,,,,,,ww,xx,2023-04-13_23h27.28.643,bandit task,2022.2.5,143.67609649673227,
159,0,159,0,,,,,0,0,0,0,,,,,,,,,143.17361459997483,143.17361459997483,143.17361459997483,143.17361459997483,143.17361459997483,w,0.0024053999222815037,143.18452090001665,143.1984335000161,143.1984335000161,143.6017197999172,143.6017197999172,143.6017197999172,55,space,2.1893837000243366,145.80463690008037,,ww,xx,2023-04-13_23h27.28.643,bandit task,2022.2.5,143.67609649673227,
159,0,159,0,,,,,,,,,,,,,,,,,,,,,,,,,,,,,,,,,,,ww,xx,2023-04-13_23h27.28.643,bandit task,2022.2.5,143.67609649673227,
160,0,160,0,0,0,0,0,,,,,,,,,146.20699819992296,146.20699819992296,space,1.9050375001970679,,,,,,,,,,,,,,,,,,,ww,xx,2023-04-13_23h27.28.643,bandit task,2022.2.5,143.67609649673227,
160,0,160,0,,,,,,,,,,,,,,,,,148.1247533999849,148.1247533999849,148.1247533999849,148.1247533999849,148.1247533999849,q,0.3807939998805523,148.51092249993235,148.52490020007826,148.52490020007826,,,,,,,,,ww,xx,2023-04-13_23h27.28.643,bandit task,2022.2.5,143.67609649673227,
161,0,161,0,,,,,,,,,,,,,,,,,148.9301491000224,148.9301491000224,148.9301491000224,148.9301491000224,148.9301491000224,o,0.07127270009368658,149.0110162999481,149.02488989988342,,,,,,,,,,ww,xx,2023-04-13_23h27.28.643,bandit task,2022.2.5,143.67609649673227,
162,0,162,0,,,,,,,,,,,,,,,,,149.4302966000978,149.4302966000978,149.4302966000978,149.4302966000978,149.4302966000978,w,0.029507200000807643,149.46933929994702,149.483353999909,149.483353999909,,,,,,,,,ww,xx,2023-04-13_23h27.28.643,bandit task,2022.2.5,143.67609649673227,
163,0,163,0,,,,,,,,,,,,,,,,,149.88841639994644,149.88841639994644,149.88841639994644,149.88841639994644,149.88841639994644,p,0.022861700039356947,149.92074400000274,149.93449150002562,,,,,,,,,,ww,xx,2023-04-13_23h27.28.643,bandit task,2022.2.5,143.67609649673227,
164,0,164,0,,,,,,,,,,,,,,,,,150.3397667000536,150.3397667000536,150.3397667000536,150.3397667000536,150.3397667000536,q,0.013904100051149726,150.35810770001262,150.37238899990916,150.37238899990916,,,,,,,,,ww,xx,2023-04-13_23h27.28.643,bandit task,2022.2.5,143.67609649673227,
165,0,165,0,,,,,,,,,,,,,,,,,150.7773211998865,150.7773211998865,150.7773211998865,150.7773211998865,150.7773211998865,o,0.09407810005359352,150.87904919986613,150.89306699996814,150.89306699996814,,,,,,,,,ww,xx,2023-04-13_23h27.28.643,bandit task,2022.2.5,143.67609649673227,
166,0,166,0,,,,,,,,,,,,,,,,,151.29856300004758,151.29856300004758,151.29856300004758,151.29856300004758,151.29856300004758,p,0.435527800116688,151.74031420005485,151.75406079995446,,,,,,,,,,ww,xx,2023-04-13_23h27.28.643,bandit task,2022.2.5,143.67609649673227,
167,0,167,0,,,,,,,,,,,,,,,,,152.15952509990893,152.15952509990893,152.15952509990893,152.15952509990893,152.15952509990893,q,0.09495509997941554,152.26118070003577,152.27501740003936,152.27501740003936,,,,,,,,,ww,xx,2023-04-13_23h27.28.643,bandit task,2022.2.5,143.67609649673227,
168,0,168,0,,,,,,,,,,,,,,,,,152.68043459998444,152.68043459998444,152.68043459998444,152.68043459998444,152.68043459998444,o,0.02950589987449348,152.71949970000423,152.73327860003337,152.73327860003337,,,,,,,,,ww,xx,2023-04-13_23h27.28.643,bandit task,2022.2.5,143.67609649673227,
169,0,169,0,,,,,,,,,,,,,,,,,153.13855300005525,153.13855300005525,153.13855300005525,153.13855300005525,153.13855300005525,w,0.2895597000606358,153.4346644000616,153.4483471000567,153.4483471000567,,,,,,,,,ww,xx,2023-04-13_23h27.28.643,bandit task,2022.2.5,143.67609649673227,
170,0,170,0,,,,,,,,,,,,,,,,,153.85398999997415,153.85398999997415,153.85398999997415,153.85398999997415,153.85398999997415,p,0.021046899957582355,153.87916229991242,153.89302399987355,153.89302399987355,,,,,,,,,ww,xx,2023-04-13_23h27.28.643,bandit task,2022.2.5,143.67609649673227,
171,0,171,0,,,,,,,,,,,,,,,,,154.29816180001944,154.29816180001944,154.29816180001944,154.29816180001944,154.29816180001944,q,0.09081780002452433,154.39297749986872,154.4068984000478,154.4068984000478,,,,,,,,,ww,xx,2023-04-13_23h27.28.643,bandit task,2022.2.5,143.67609649673227,
172,0,172,0,,,,,,,,,,,,,,,,,154.8122864998877,154.8122864998877,154.8122864998877,154.8122864998877,154.8122864998877,o,0.03748559998348355,154.8581664999947,154.87214199989103,154.87214199989103,,,,,,,,,ww,xx,2023-04-13_23h27.28.643,bandit task,2022.2.5,143.67609649673227,
173,0,173,0,,,,,,,,,,,,,,,,,155.2771435000468,155.2771435000468,155.2771435000468,155.2771435000468,155.2771435000468,w,0.17426080000586808,155.4559414999094,155.46945620002225,155.46945620002225,,,,,,,,,ww,xx,2023-04-13_23h27.28.643,bandit task,2022.2.5,143.67609649673227,
174,0,174,0,,,,,,,,,,,,,,,,,155.8754926000256,155.8754926000256,155.8754926000256,155.8754926000256,155.8754926000256,p,0.4945066999644041,156.37881070002913,156.39290269999765,156.39290269999765,,,,,,,,,ww,xx,2023-04-13_23h27.28.643,bandit task,2022.2.5,143.67609649673227,
175,0,175,0,,,,,,,,,,,,,,,,,156.79835959989578,156.79835959989578,156.79835959989578,156.79835959989578,156.79835959989578,q,0.28504010010510683,157.09437209996395,157.1082160999067,,,,,,,,,,ww,xx,2023-04-13_23h27.28.643,bandit task,2022.2.5,143.67609649673227,
176,0,176,0,,,,,,,,,,,,,,,,,157.51439590007067,157.51439590007067,157.51439590007067,157.51439590007067,157.51439590007067,o,0.08824439998716116,157.608291399898,157.62228189990856,157.62228189990856,,,,,,,,,ww,xx,2023-04-13_23h27.28.643,bandit task,2022.2.5,143.67609649673227,
177,0,177,0,,,,,,,,,,,,,,,,,158.02733429986984,158.02733429986984,158.02733429986984,158.02733429986984,158.02733429986984,w,0.12793390010483563,158.16372719989158,158.1775936000049,,,,,,,,,,ww,xx,2023-04-13_23h27.28.643,bandit task,2022.2.5,143.67609649673227,
178,0,178,0,,,,,,,,,,,,,,,,,158.58304050005972,158.58304050005972,158.58304050005972,158.58304050005972,158.58304050005972,p,0.0689727000426501,158.65706739993766,158.6709392000921,158.6709392000921,,,,,,,,,ww,xx,2023-04-13_23h27.28.643,bandit task,2022.2.5,143.67609649673227,
179,0,179,0,,,,,0,0,0,0,,,,,,,,,159.07613649987616,159.07613649987616,159.07613649987616,159.07613649987616,159.07613649987616,q,0.09110240009613335,159.17756549990736,159.19153279997408,159.19153279997408,159.5947708999738,159.5947708999738,159.5947708999738,41 ,space,1.9945288999006152,161.60131649998948,,ww,xx,2023-04-13_23h27.28.643,bandit task,2022.2.5,143.67609649673227,
179,0,179,0,,,,,,,,,,,,,,,,,,,,,,,,,,,,,,,,,,,ww,xx,2023-04-13_23h27.28.643,bandit task,2022.2.5,143.67609649673227,
180,0,180,0,0,0,0,0,,,,,,,,,162.00599689991213,162.00599689991213,space,0.7472500998992473,,,,,,,,,,,,,,,,,,,ww,xx,2023-04-13_23h27.28.643,bandit task,2022.2.5,143.67609649673227,
180,0,180,0,,,,,,,,,,,,,,,,,162.76492549991235,162.76492549991235,162.76492549991235,162.76492549991235,162.76492549991235,q,0.48308770009316504,163.25418370007537,163.2677943999879,163.2677943999879,,,,,,,,,ww,xx,2023-04-13_23h27.28.643,bandit task,2022.2.5,143.67609649673227,
181,0,181,0,,,,,,,,,,,,,,,,,163.67359640006907,163.67359640006907,163.67359640006907,163.67359640006907,163.67359640006907,o,0.08998030005022883,163.7680561998859,163.78192049986683,163.78192049986683,,,,,,,,,ww,xx,2023-04-13_23h27.28.643,bandit task,2022.2.5,143.67609649673227,
182,0,182,0,,,,,,,,,,,,,,,,,164.18728789989837,164.18728789989837,164.18728789989837,164.18728789989837,164.18728789989837,w,0.018510800087824464,164.21240619989112,164.22621209989302,164.22621209989302,,,,,,,,,ww,xx,2023-04-13_23h27.28.643,bandit task,2022.2.5,143.67609649673227,
183,0,183,0,,,,,,,,,,,,,,,,,164.6316146000754,164.6316146000754,164.6316146000754,164.6316146000754,164.6316146000754,p,0.062187899835407734,164.69833180005662,164.7121846000664,164.7121846000664,,,,,,,,,ww,xx,2023-04-13_23h27.28.643,bandit task,2022.2.5,143.67609649673227,
184,0,184,0,,,,,,,,,,,,,,,,,165.11764499987476,165.11764499987476,165.11764499987476,165.11764499987476,165.11764499987476,q,0.029378999955952168,165.15682630008087,165.17055219993927,165.17055219993927,,,,,,,,,ww,xx,2023-04-13_23h27.28.643,bandit task,2022.2.5,143.67609649673227,
185,0,185,0,,,,,,,,,,,,,,,,,165.57595259998925,165.57595259998925,165.57595259998925,165.57595259998925,165.57595259998925,o,0.07722390000708401,165.66361899999902,165.6776067998726,165.6776067998726,,,,,,,,,ww,xx,2023-04-13_23h27.28.643,bandit task,2022.2.5,143.67609649673227,
186,0,186,0,,,,,,,,,,,,,,,,,166.0834844999481,166.0834844999481,166.0834844999481,166.0834844999481,166.0834844999481,w,0.04277970013208687,166.1358443000354,166.1499163999688,166.1499163999688,,,,,,,,,ww,xx,2023-04-13_23h27.28.643,bandit task,2022.2.5,143.67609649673227,
187,0,187,0,,,,,,,,,,,,,,,,,166.55549070006236,166.55549070006236,166.55549070006236,166.55549070006236,166.55549070006236,q,0.36416819994337857,166.9275344000198,166.9415082000196,166.9415082000196,,,,,,,,,ww,xx,2023-04-13_23h27.28.643,bandit task,2022.2.5,143.67609649673227,
188,0,188,0,,,,,,,,,,,,,,,,,167.3473167999182,167.3473167999182,167.3473167999182,167.3473167999182,167.3473167999182,o,0.011739599984139204,167.3652943999041,167.37907269992866,167.37907269992866,,,,,,,,,ww,xx,2023-04-13_23h27.28.643,bandit task,2022.2.5,143.67609649673227,
189,0,189,0,,,,,,,,,,,,,,,,,167.7845149000641,167.7845149000641,167.7845149000641,167.7845149000641,167.7845149000641,p,0.38986949995160103,168.18459720001556,168.1984184999019,,,,,,,,,,ww,xx,2023-04-13_23h27.28.643,bandit task,2022.2.5,143.67609649673227,
190,0,190,0,,,,,,,,,,,,,,,,,168.60405749990605,168.60405749990605,168.60405749990605,168.60405749990605,168.60405749990605,q,0.024346099933609366,168.63590290001594,168.6497283000499,168.6497283000499,,,,,,,,,ww,xx,2023-04-13_23h27.28.643,bandit task,2022.2.5,143.67609649673227,
191,0,191,0,,,,,,,,,,,,,,,,,169.05535409995355,169.05535409995355,169.05535409995355,169.05535409995355,169.05535409995355,o,0.027602899819612503,169.08722739992663,169.1013619999867,,,,,,,,,,ww,xx,2023-04-13_23h27.28.643,bandit task,2022.2.5,143.67609649673227,
192,0,192,0,,,,,,,,,,,,,,,,,169.5064441000577,169.5064441000577,169.5064441000577,169.5064441000577,169.5064441000577,w,0.05468760011717677,169.56681160000153,169.58036620006897,169.58036620006897,,,,,,,,,ww,xx,2023-04-13_23h27.28.643,bandit task,2022.2.5,143.67609649673227,
193,0,193,0,,,,,,,,,,,,,,,,,169.98576220008545,169.98576220008545,169.98576220008545,169.98576220008545,169.98576220008545,q,0.36798159987665713,170.35823819995858,170.37226990005001,170.37226990005001,,,,,,,,,ww,xx,2023-04-13_23h27.28.643,bandit task,2022.2.5,143.67609649673227,
194,0,194,0,,,,,,,,,,,,,,,,,170.7774330000393,170.7774330000393,170.7774330000393,170.7774330000393,170.7774330000393,o,0.019295500125735998,170.80321879987605,170.81645060004666,170.81645060004666,,,,,,,,,ww,xx,2023-04-13_23h27.28.643,bandit task,2022.2.5,143.67609649673227,
195,0,195,0,,,,,,,,,,,,,,,,,171.2216330000665,171.2216330000665,171.2216330000665,171.2216330000665,171.2216330000665,w,0.015951799927279353,171.2469738998916,171.2609013998881,,,,,,,,,,ww,xx,2023-04-13_23h27.28.643,bandit task,2022.2.5,143.67609649673227,
196,0,196,0,,,,,,,,,,,,,,,,,171.66667569987476,171.66667569987476,171.66667569987476,171.66667569987476,171.66667569987476,q,0.33305209991522133,172.00428829994053,172.01775310002267,172.01775310002267,,,,,,,,,ww,xx,2023-04-13_23h27.28.643,bandit task,2022.2.5,143.67609649673227,
197,0,197,0,,,,,,,,,,,,,,,,,172.42308539990336,172.42308539990336,172.42308539990336,172.42308539990336,172.42308539990336,q,0.39898170018568635,172.83021009992808,172.84426339995116,172.84426339995116,,,,,,,,,ww,xx,2023-04-13_23h27.28.643,bandit task,2022.2.5,143.67609649673227,
198,0,198,0,,,,,,,,,,,,,,,,,173.24972580000758,173.24972580000758,173.24972580000758,173.24972580000758,173.24972580000758,q,0.3413275999482721,173.6011765000876,173.6150885000825,,,,,,,,,,ww,xx,2023-04-13_23h27.28.643,bandit task,2022.2.5,143.67609649673227,
199,0,199,0,,,,,0,0,0,0,,,,,,,,,174.020465800073,174.020465800073,174.020465800073,174.020465800073,174.020465800073,w,0.28965630009770393,174.3164063000586,174.3302811998874,174.3302811998874,174.73341089999303,174.73341089999303,174.73341089999303,10,space,1.4166900001000613,176.1576016000472,,ww,xx,2023-04-13_23h27.28.643,bandit task,2022.2.5,143.67609649673227,
199,0,199,0,,,,,,,,,,,,,,,,,,,,,,,,,,,,,,,,,,,ww,xx,2023-04-13_23h27.28.643,bandit task,2022.2.5,143.67609649673227,
200,0,200,0,0,0,0,0,,,,,,,,,176.56001659994945,176.56001659994945,space,0.9080074999947101,,,,,,,,,,,,,,,,,,,ww,xx,2023-04-13_23h27.28.643,bandit task,2022.2.5,143.67609649673227,
200,0,200,0,,,,,,,,,,,,,,,,,177.4788828000892,177.4788828000892,177.4788828000892,177.4788828000892,177.4788828000892,q,0.3384092999622226,177.82345529994927,177.83716270001605,177.83716270001605,,,,,,,,,ww,xx,2023-04-13_23h27.28.643,bandit task,2022.2.5,143.67609649673227,
201,0,201,0,,,,,,,,,,,,,,,,,178.24260829994455,178.24260829994455,178.24260829994455,178.24260829994455,178.24260829994455,p,0.005984999937936664,178.25392200006172,178.26788210007362,178.26788210007362,,,,,,,,,ww,xx,2023-04-13_23h27.28.643,bandit task,2022.2.5,143.67609649673227,
202,0,202,0,,,,,,,,,,,,,,,,,178.67355760000646,178.67355760000646,178.67355760000646,178.67355760000646,178.67355760000646,w,0.38980229990556836,179.07335139997303,179.08736889995635,,,,,,,,,,ww,xx,2023-04-13_23h27.28.643,bandit task,2022.2.5,143.67609649673227,
203,0,203,0,,,,,,,,,,,,,,,,,179.49265179992653,179.49265179992653,179.49265179992653,179.49265179992653,179.49265179992653,o,0.46657139994204044,179.96939589991234,179.98304619989358,,,,,,,,,,ww,xx,2023-04-13_23h27.28.643,bandit task,2022.2.5,143.67609649673227,
204,0,204,0,,,,,,,,,,,,,,,,,180.38886609999463,180.38886609999463,180.38886609999463,180.38886609999463,180.38886609999463,q,0.029494799906387925,180.4275422000792,180.44137199991383,,,,,,,,,,ww,xx,2023-04-13_23h27.28.643,bandit task,2022.2.5,143.67609649673227,
205,0,205,0,,,,,,,,,,,,,,,,,180.84697320009582,180.84697320009582,180.84697320009582,180.84697320009582,180.84697320009582,p,0.03612589999102056,180.8927577000577,180.9067867998965,180.9067867998965,,,,,,,,,ww,xx,2023-04-13_23h27.28.643,bandit task,2022.2.5,143.67609649673227,
206,0,206,0,,,,,,,,,,,,,,,,,181.3118805999402,181.3118805999402,181.3118805999402,181.3118805999402,181.3118805999402,q,0.08239470003172755,181.3997080998961,181.4136206000112,181.4136206000112,,,,,,,,,ww,xx,2023-04-13_23h27.28.643,bandit task,2022.2.5,143.67609649673227,
207,0,207,0,,,,,,,,,,,,,,,,,181.81895220000297,181.81895220000297,181.81895220000297,181.81895220000297,181.81895220000297,o,0.04036619979888201,181.86489579989575,181.87902379990555,181.87902379990555,,,,,,,,,ww,xx,2023-04-13_23h27.28.643,bandit task,2022.2.5,143.67609649673227,
208,0,208,0,,,,,,,,,,,,,,,,,182.28453739988618,182.28453739988618,182.28453739988618,182.28453739988618,182.28453739988618,q,0.013823000015690923,182.30281440005638,182.31639200006612,182.31639200006612,,,,,,,,,ww,xx,2023-04-13_23h27.28.643,bandit task,2022.2.5,143.67609649673227,
209,0,209,0,,,,,,,,,,,,,,,,,182.7223407998681,182.7223407998681,182.7223407998681,182.7223407998681,182.7223407998681,p,0.007841200102120638,182.74011090002023,182.7538065998815,182.7538065998815,,,,,,,,,ww,xx,2023-04-13_23h27.28.643,bandit task,2022.2.5,143.67609649673227,
210,0,210,0,,,,,,,,,,,,,,,,,183.1591972000897,183.1591972000897,183.1591972000897,183.1591972000897,183.1591972000897,o,0.41586680011823773,183.58025599992834,183.59426430007443,183.59426430007443,,,,,,,,,ww,xx,2023-04-13_23h27.28.643,bandit task,2022.2.5,143.67609649673227,
211,0,211,0,,,,,,,,,,,,,,,,,183.99954079999588,183.99954079999588,183.99954079999588,183.99954079999588,183.99954079999588,q,0.12042249995283782,184.12887819996104,184.14278750005178,184.14278750005178,,,,,,,,,ww,xx,2023-04-13_23h27.28.643,bandit task,2022.2.5,143.67609649673227,
212,0,212,0,,,,,,,,,,,,,,,,,184.54828589991666,184.54828589991666,184.54828589991666,184.54828589991666,184.54828589991666,p,0.37655270006507635,184.9345082999207,184.94839489995502,,,,,,,,,,ww,xx,2023-04-13_23h27.28.643,bandit task,2022.2.5,143.67609649673227,
213,0,213,0,,,,,,,,,,,,,,,,,185.3542267999146,185.3542267999146,185.3542267999146,185.3542267999146,185.3542267999146,q,0.3327174000442028,185.69128450006247,185.7053864998743,185.7053864998743,,,,,,,,,ww,xx,2023-04-13_23h27.28.643,bandit task,2022.2.5,143.67609649673227,
214,0,214,0,,,,,,,,,,,,,,,,,186.11059909989126,186.11059909989126,186.11059909989126,186.11059909989126,186.11059909989126,o,0.05940790008753538,186.17774429987185,186.1914337000344,186.1914337000344,,,,,,,,,ww,xx,2023-04-13_23h27.28.643,bandit task,2022.2.5,143.67609649673227,
215,0,215,0,,,,,,,,,,,,,,,,,186.59691120008938,186.59691120008938,186.59691120008938,186.59691120008938,186.59691120008938,q,0.02243599994108081,186.62874559988268,186.6427851000335,186.6427851000335,,,,,,,,,ww,xx,2023-04-13_23h27.28.643,bandit task,2022.2.5,143.67609649673227,
216,0,216,0,,,,,,,,,,,,,,,,,187.0482103000395,187.0482103000395,187.0482103000395,187.0482103000395,187.0482103000395,p,0.04287500004284084,187.1012923999224,187.11508799996227,187.11508799996227,,,,,,,,,ww,xx,2023-04-13_23h27.28.643,bandit task,2022.2.5,143.67609649673227,
217,0,217,0,,,,,,,,,,,,,,,,,187.52056189998984,187.52056189998984,187.52056189998984,187.52056189998984,187.52056189998984,q,0.021640799939632416,187.55248300009407,187.566377799958,,,,,,,,,,ww,xx,2023-04-13_23h27.28.643,bandit task,2022.2.5,143.67609649673227,
218,0,218,0,,,,,,,,,,,,,,,,,187.97189079993404,187.97189079993404,187.97189079993404,187.97189079993404,187.97189079993404,o,0.044083200162276626,188.0247680998873,188.03865620004945,188.03865620004945,,,,,,,,,ww,xx,2023-04-13_23h27.28.643,bandit task,2022.2.5,143.67609649673227,
219,0,219,0,,,,,0,0,0,0,,,,,,,,,188.44401740003377,188.44401740003377,188.44401740003377,188.44401740003377,188.44401740003377,q,0.04427479999139905,188.4972302999813,188.51086609996855,188.51086609996855,188.91402660007589,188.91402660007589,188.91402660007589,11 ,space,1.7575352999847382,190.6849098999519,,ww,xx,2023-04-13_23h27.28.643,bandit task,2022.2.5,143.67609649673227,
219,0,219,0,,,,,,,,,,,,,,,,,,,,,,,,,,,,,,,,,,,ww,xx,2023-04-13_23h27.28.643,bandit task,2022.2.5,143.67609649673227,
220,0,220,0,0,0,0,0,,,,,,,,,191.08849089988507,191.08849089988507,space,0.9986534002237022,,,,,,,,,,,,,,,,,,,ww,xx,2023-04-13_23h27.28.643,bandit task,2022.2.5,143.67609649673227,
220,0,220,0,,,,,,,,,,,,,,,,,192.09669500007294,192.09669500007294,192.09669500007294,192.09669500007294,192.09669500007294,q,0.3359454998280853,192.44162190007046,192.45543040009215,192.45543040009215,,,,,,,,,ww,xx,2023-04-13_23h27.28.643,bandit task,2022.2.5,143.67609649673227,
221,0,221,0,,,,,,,,,,,,,,,,,192.86159510002472,192.86159510002472,192.86159510002472,192.86159510002472,192.86159510002472,p,0.004910600138828158,192.8738285000436,192.88605870003812,192.88605870003812,,,,,,,,,ww,xx,2023-04-13_23h27.28.643,bandit task,2022.2.5,143.67609649673227,
222,0,222,0,,,,,,,,,,,,,,,,,193.29196400009096,193.29196400009096,193.29196400009096,193.29196400009096,193.29196400009096,w,0.021269200136885047,193.32410109997727,193.33730040001683,193.33730040001683,,,,,,,,,ww,xx,2023-04-13_23h27.28.643,bandit task,2022.2.5,143.67609649673227,
223,0,223,0,,,,,,,,,,,,,,,,,193.74270719988272,193.74270719988272,193.74270719988272,193.74270719988272,193.74270719988272,o,0.01302019995637238,193.76063570007682,193.77475610002875,193.77475610002875,,,,,,,,,ww,xx,2023-04-13_23h27.28.643,bandit task,2022.2.5,143.67609649673227,
224,0,224,0,,,,,,,,,,,,,,,,,194.17986009991728,194.17986009991728,194.17986009991728,194.17986009991728,194.17986009991728,q,0.00401380006223917,194.19131599995308,194.20531799993478,194.20531799993478,,,,,,,,,ww,xx,2023-04-13_23h27.28.643,bandit task,2022.2.5,143.67609649673227,
225,0,225,0,,,,,,,,,,,,,,,,,194.6107050999999,194.6107050999999,194.6107050999999,194.6107050999999,194.6107050999999,p,0.029752799775451422,194.649567599874,194.6636735999491,194.6636735999491,,,,,,,,,ww,xx,2023-04-13_23h27.28.643,bandit task,2022.2.5,143.67609649673227,
226,0,226,0,,,,,,,,,,,,,,,,,195.06915139988996,195.06915139988996,195.06915139988996,195.06915139988996,195.06915139988996,q,0.030811999924480915,195.10807509999722,195.12184450007044,195.12184450007044,,,,,,,,,ww,xx,2023-04-13_23h27.28.643,bandit task,2022.2.5,143.67609649673227,
227,0,227,0,,,,,,,,,,,,,,,,,195.52714079990983,195.52714079990983,195.52714079990983,195.52714079990983,195.52714079990983,o,0.0992185000795871,195.63565890002064,195.64957090001553,195.64957090001553,,,,,,,,,ww,xx,2023-04-13_23h27.28.643,bandit task,2022.2.5,143.67609649673227,
228,0,228,0,,,,,,,,,,,,,,,,,196.05550540005788,196.05550540005788,196.05550540005788,196.05550540005788,196.05550540005788,p,0.4260395001620054,196.48996730009094,196.50381079991348,196.50381079991348,,,,,,,,,ww,xx,2023-04-13_23h27.28.643,bandit task,2022.2.5,143.67609649673227,
229,0,229,0,,,,,,,,,,,,,,,,,196.90905499993823,196.90905499993823,196.90905499993823,196.90905499993823,196.90905499993823,q,0.05027949996292591,196.96897569997236,196.98313499987125,196.98313499987125,,,,,,,,,ww,xx,2023-04-13_23h27.28.643,bandit task,2022.2.5,143.67609649673227,
230,0,230,0,,,,,,,,,,,,,,,,,197.38904609996825,197.38904609996825,197.38904609996825,197.38904609996825,197.38904609996825,q,0.4086232001427561,197.80248300009407,197.81638149986975,197.81638149986975,,,,,,,,,ww,xx,2023-04-13_23h27.28.643,bandit task,2022.2.5,143.67609649673227,
231,0,231,0,,,,,,,,,,,,,,,,,198.22166959987953,198.22166959987953,198.22166959987953,198.22166959987953,198.22166959987953,p,0.020286699989810586,198.24690499994904,198.2611511000432,198.2611511000432,,,,,,,,,ww,xx,2023-04-13_23h27.28.643,bandit task,2022.2.5,143.67609649673227,
232,0,232,0,,,,,,,,,,,,,,,,,198.66668289992958,198.66668289992958,198.66668289992958,198.66668289992958,198.66668289992958,q,0.04893439984880388,198.72001889999956,198.73307399987243,198.73307399987243,,,,,,,,,ww,xx,2023-04-13_23h27.28.643,bandit task,2022.2.5,143.67609649673227,
233,0,233,0,,,,,,,,,,,,,,,,,199.13838059990667,199.13838059990667,199.13838059990667,199.13838059990667,199.13838059990667,q,0.3849302001763135,199.53159649996087,199.54555839998648,199.54555839998648,,,,,,,,,ww,xx,2023-04-13_23h27.28.643,bandit task,2022.2.5,143.67609649673227,
234,0,234,0,,,,,,,,,,,,,,,,,199.95087729999796,199.95087729999796,199.95087729999796,199.95087729999796,199.95087729999796,p,0.2372680997941643,200.19370780000463,200.20558819989674,200.20558819989674,,,,,,,,,ww,xx,2023-04-13_23h27.28.643,bandit task,2022.2.5,143.67609649673227,
235,0,235,0,,,,,,,,,,,,,,,,,200.6105019999668,200.6105019999668,200.6105019999668,200.6105019999668,200.6105019999668,q,0.0263498998247087,200.64275110000744,200.65666770003736,200.65666770003736,,,,,,,,,ww,xx,2023-04-13_23h27.28.643,bandit task,2022.2.5,143.67609649673227,
236,0,236,0,,,,,,,,,,,,,,,,,201.06194450007752,201.06194450007752,201.06194450007752,201.06194450007752,201.06194450007752,o,0.03450990002602339,201.10097720008343,201.11515869991854,201.11515869991854,,,,,,,,,ww,xx,2023-04-13_23h27.28.643,bandit task,2022.2.5,143.67609649673227,
237,0,237,0,,,,,,,,,,,,,,,,,201.52076029987074,201.52076029987074,201.52076029987074,201.52076029987074,201.52076029987074,w,0.04225539998151362,201.5733690999914,201.587248200085,201.587248200085,,,,,,,,,ww,xx,2023-04-13_23h27.28.643,bandit task,2022.2.5,143.67609649673227,
238,0,238,0,,,,,,,,,,,,,,,,,201.99294280004688,201.99294280004688,201.99294280004688,201.99294280004688,201.99294280004688,q,0.38145980006083846,202.37880499986932,202.39283200004138,202.39283200004138,,,,,,,,,ww,xx,2023-04-13_23h27.28.643,bandit task,2022.2.5,143.67609649673227,
239,0,239,0,,,,,0,0,0,0,,,,,,,,,202.7980597000569,202.7980597000569,202.7980597000569,202.7980597000569,202.7980597000569,o,0.22073920001275837,203.02469419990666,203.03865229990333,,203.44193050009198,203.44193050009198,203.44193050009198, ,space,1.3554285999853164,204.80974030005746,,ww,xx,2023-04-13_23h27.28.643,bandit task,2022.2.5,143.67609649673227,
239,0,239,0,,,,,,,,,,,,,,,,,,,,,,,,,,,,,,,,,,,ww,xx,2023-04-13_23h27.28.643,bandit task,2022.2.5,143.67609649673227,
,,,,,,,,,,,,,,,,,,,,,,,,,,,,,,,,,,,,,205.21236560004763,,,,,,,
