newtrials.thisRepN,newtrials.thisTrialN,newtrials.thisN,newtrials.thisIndex,trials.thisRepN,trials.thisTrialN,trials.thisN,trials.thisIndex,trials_2.thisRepN,trials_2.thisTrialN,trials_2.thisN,trials_2.thisIndex,newintrotext.started,newintroresp.started,newintroresp.keys,newintroresp.rt,key_resp_2.started,reme_t.started,key_resp_2.keys,key_resp_2.rt,newkeyresp.started,nQ.started,nW.started,nO.started,nP.started,newkeyresp.keys,newkeyresp.rt,text_7.started,text.started,text_6.started,textbox.started,key_resp_3.started,textbox.text,key_resp_3.keys,key_resp_3.rt,text_2.started,text_2.stopped,text_7.stopped,text.stopped,Roll Number,Name,date,expName,psychopyVersion,frameRate,
,,,,,,,,,,,,31.36477250000462,31.36477250000462,space,6.035532800015062,,,,,,,,,,,,,,,,,,,,,,,,200449,sdfsdsd,2023-04-13_19h11.30.997,bandit task,2022.2.5,60.03925369736351,
0,0,0,0,0,0,0,0,,,,,,,,,37.45374009991065,37.45374009991065,space,1.5025899999309331,,,,,,,,,,,,,,,,,,,,200449,sdfsdsd,2023-04-13_19h11.30.997,bandit task,2022.2.5,60.03925369736351,
0,0,0,0,,,,,,,,,,,,,,,,,39.011820500018075,39.011820500018075,39.011820500018075,39.011820500018075,39.011820500018075,q,0.800239099888131,39.83208360010758,39.8486909000203,,,,,,,,,,,200449,sdfsdsd,2023-04-13_19h11.30.997,bandit task,2022.2.5,60.03925369736351,
1,0,1,0,,,,,,,,,,,,,,,,,40.251603099983186,40.251603099983186,40.251603099983186,40.251603099983186,40.251603099983186,q,0.5746891999151558,40.848764300113544,40.865343200042844,,,,,,,,,,,200449,sdfsdsd,2023-04-13_19h11.30.997,bandit task,2022.2.5,60.03925369736351,
2,0,2,0,,,,,,,,,,,,,,,,,41.26825470011681,41.26825470011681,41.26825470011681,41.26825470011681,41.26825470011681,q,0.25950910011306405,41.548919999971986,41.56577580003068,,,,,,,,,,,200449,sdfsdsd,2023-04-13_19h11.30.997,bandit task,2022.2.5,60.03925369736351,
3,0,3,0,,,,,,,,,,,,,,,,,41.96791599993594,41.96791599993594,41.96791599993594,41.96791599993594,41.96791599993594,o,0.22248149989172816,42.215327500132844,42.23204790009186,,,,,,,,,,,200449,sdfsdsd,2023-04-13_19h11.30.997,bandit task,2022.2.5,60.03925369736351,
4,0,4,0,,,,,,,,,,,,,,,,,42.634825699962676,42.634825699962676,42.634825699962676,42.634825699962676,42.634825699962676,p,0.20960820000618696,42.86523190001026,42.88222640007734,,,,,,,,,,,200449,sdfsdsd,2023-04-13_19h11.30.997,bandit task,2022.2.5,60.03925369736351,
5,0,5,0,,,,,,,,,,,,,,,,,43.28451419994235,43.28451419994235,43.28451419994235,43.28451419994235,43.28451419994235,o,0.2686918000690639,43.58193140011281,43.59880529996008,,,,,,,,,,,200449,sdfsdsd,2023-04-13_19h11.30.997,bandit task,2022.2.5,60.03925369736351,
6,0,6,0,,,,,,,,,,,,,,,,,44.00181229994632,44.00181229994632,44.00181229994632,44.00181229994632,44.00181229994632,w,0.21002989984117448,44.23222930007614,44.248899600002915,,,,,,,,,,,200449,sdfsdsd,2023-04-13_19h11.30.997,bandit task,2022.2.5,60.03925369736351,
7,0,7,0,,,,,,,,,,,,,,,,,44.651911800028756,44.651911800028756,44.651911800028756,44.651911800028756,44.651911800028756,p,0.20398620003834367,44.88190370006487,44.898601999972016,,,,,,,,,,,200449,sdfsdsd,2023-04-13_19h11.30.997,bandit task,2022.2.5,60.03925369736351,
8,0,8,0,,,,,,,,,,,,,,,,,45.30144950002432,45.30144950002432,45.30144950002432,45.30144950002432,45.30144950002432,q,0.18397430004552007,45.498608299996704,45.51536260009743,,,,,,,,,,,200449,sdfsdsd,2023-04-13_19h11.30.997,bandit task,2022.2.5,60.03925369736351,
9,0,9,0,,,,,,,,,,,,,,,,,45.91772000002675,45.91772000002675,45.91772000002675,45.91772000002675,45.91772000002675,o,0.24432930001057684,46.18199750012718,46.198442599968985,,,,,,,,,,,200449,sdfsdsd,2023-04-13_19h11.30.997,bandit task,2022.2.5,60.03925369736351,
10,0,10,0,,,,,,,,,,,,,,,,,46.60200630011968,46.60200630011968,46.60200630011968,46.60200630011968,46.60200630011968,w,0.24608369986526668,46.86506260000169,46.88184990012087,,,,,,,,,,,200449,sdfsdsd,2023-04-13_19h11.30.997,bandit task,2022.2.5,60.03925369736351,
11,0,11,0,,,,,,,,,,,,,,,,,47.28487060009502,47.28487060009502,47.28487060009502,47.28487060009502,47.28487060009502,p,0.20337369991466403,47.51514840009622,47.53182790009305,,,,,,,,,,,200449,sdfsdsd,2023-04-13_19h11.30.997,bandit task,2022.2.5,60.03925369736351,
12,0,12,0,,,,,,,,,,,,,,,,,47.934263200033456,47.934263200033456,47.934263200033456,47.934263200033456,47.934263200033456,q,0.22187280002981424,48.18175150011666,48.19833009992726,,,,,,,,,,,200449,sdfsdsd,2023-04-13_19h11.30.997,bandit task,2022.2.5,60.03925369736351,
13,0,13,0,,,,,,,,,,,,,,,,,48.601602900074795,48.601602900074795,48.601602900074795,48.601602900074795,48.601602900074795,o,0.1679285999853164,48.79833379993215,48.8150297999382,,,,,,,,,,,200449,sdfsdsd,2023-04-13_19h11.30.997,bandit task,2022.2.5,60.03925369736351,
14,0,14,0,,,,,,,,,,,,,,,,,49.21761590009555,49.21761590009555,49.21761590009555,49.21761590009555,49.21761590009555,w,0.172765500145033,49.41536230011843,49.431633699918166,,,,,,,,,,,200449,sdfsdsd,2023-04-13_19h11.30.997,bandit task,2022.2.5,60.03925369736351,
15,0,15,0,,,,,,,,,,,,,,,,,49.83446600008756,49.83446600008756,49.83446600008756,49.83446600008756,49.83446600008756,p,0.21550210006535053,50.065802600001916,50.081695900065824,,,,,,,,,,,200449,sdfsdsd,2023-04-13_19h11.30.997,bandit task,2022.2.5,60.03925369736351,
16,0,16,0,,,,,,,,,,,,,,,,,50.484156999969855,50.484156999969855,50.484156999969855,50.484156999969855,50.484156999969855,q,0.19515449996106327,50.69835909991525,50.71509589999914,,,,,,,,,,,200449,sdfsdsd,2023-04-13_19h11.30.997,bandit task,2022.2.5,60.03925369736351,
17,0,17,0,,,,,,,,,,,,,,,,,51.11752640013583,51.11752640013583,51.11752640013583,51.11752640013583,51.11752640013583,o,0.17318439995869994,51.315808000043035,51.331930600106716,,,,,,,,,,,200449,sdfsdsd,2023-04-13_19h11.30.997,bandit task,2022.2.5,60.03925369736351,
18,0,18,0,,,,,,,,,,,,,,,,,51.73418790008873,51.73418790008873,51.73418790008873,51.73418790008873,51.73418790008873,w,0.18321050005033612,51.93151600006968,51.94824589998461,,,,,,,,,,,200449,sdfsdsd,2023-04-13_19h11.30.997,bandit task,2022.2.5,60.03925369736351,
19,0,19,0,,,,,,,,,,,,,,,,,52.351059100124985,52.351059100124985,52.351059100124985,52.351059100124985,52.351059100124985,p,0.17413460020907223,52.54830519994721,52.564855800010264,,,,,,,,,,,200449,sdfsdsd,2023-04-13_19h11.30.997,bandit task,2022.2.5,60.03925369736351,
20,0,20,0,,,,,0,0,0,0,,,,,,,,,52.96728549990803,52.96728549990803,52.96728549990803,52.96728549990803,52.96728549990803,q,0.17065939982421696,53.16652230010368,53.181523100007325,53.58174549997784,53.58174549997784,53.58174549997784,02,space,3.2453338000923395,56.84801899990998,57.24797790008597,,,200449,sdfsdsd,2023-04-13_19h11.30.997,bandit task,2022.2.5,60.03925369736351,
20,0,20,0,,,,,,,,,,,,,,,,,,,,,,,,,,,,,,,,,,,,200449,sdfsdsd,2023-04-13_19h11.30.997,bandit task,2022.2.5,60.03925369736351,
21,0,21,0,0,0,0,0,,,,,,,,,57.24797790008597,57.24797790008597,space,1.9755645000841469,,,,,,,,,,,,,,,,,,,,200449,sdfsdsd,2023-04-13_19h11.30.997,bandit task,2022.2.5,60.03925369736351,
21,0,21,0,,,,,,,,,,,,,,,,,59.25065810000524,59.25065810000524,59.25065810000524,59.25065810000524,59.25065810000524,q,0.47578429989516735,59.74785379995592,59.76458949991502,,,,,,,,,,,200449,sdfsdsd,2023-04-13_19h11.30.997,bandit task,2022.2.5,60.03925369736351,
22,0,22,0,,,,,,,,,,,,,,,,,60.16709779994562,60.16709779994562,60.16709779994562,60.16709779994562,60.16709779994562,o,0.18932730006054044,60.381270500132814,60.39787760004401,,,,,,,,,,,200449,sdfsdsd,2023-04-13_19h11.30.997,bandit task,2022.2.5,60.03925369736351,
23,0,23,0,,,,,,,,,,,,,,,,,60.80064069991931,60.80064069991931,60.80064069991931,60.80064069991931,60.80064069991931,w,0.2932756000664085,61.11465850006789,61.131274400046095,,,,,,,,,,,200449,sdfsdsd,2023-04-13_19h11.30.997,bandit task,2022.2.5,60.03925369736351,
24,0,24,0,,,,,,,,,,,,,,,,,61.53454659995623,61.53454659995623,61.53454659995623,61.53454659995623,61.53454659995623,p,0.2655273999553174,61.81435910006985,61.831202500034124,,,,,,,,,61.831202500034124,62.23360539996065,200449,sdfsdsd,2023-04-13_19h11.30.997,bandit task,2022.2.5,60.03925369736351,
25,0,25,0,,,,,,,,,,,,,,,,,62.23360539996065,62.23360539996065,62.23360539996065,62.23360539996065,62.23360539996065,q,0.670804199995473,62.93108340003528,62.94773510005325,,,,,,,,,,,200449,sdfsdsd,2023-04-13_19h11.30.997,bandit task,2022.2.5,60.03925369736351,
26,0,26,0,,,,,,,,,,,,,,,,,63.35046089999378,63.35046089999378,63.35046089999378,63.35046089999378,63.35046089999378,o,0.3249183997977525,63.6976435999386,63.71442910004407,,,,,,,,,,,200449,sdfsdsd,2023-04-13_19h11.30.997,bandit task,2022.2.5,60.03925369736351,
27,0,27,0,,,,,,,,,,,,,,,,,64.11695579998195,64.11695579998195,64.11695579998195,64.11695579998195,64.11695579998195,w,0.28296310012228787,64.41553679993376,64.43104770011269,,,,,,,,,,,200449,sdfsdsd,2023-04-13_19h11.30.997,bandit task,2022.2.5,60.03925369736351,
28,0,28,0,,,,,,,,,,,,,,,,,64.83370919991285,64.83370919991285,64.83370919991285,64.83370919991285,64.83370919991285,p,0.26046840008348227,65.11478330008686,65.13104170002043,,,,,,,,,,,200449,sdfsdsd,2023-04-13_19h11.30.997,bandit task,2022.2.5,60.03925369736351,
29,0,29,0,,,,,,,,,,,,,,,,,65.533743100008,65.533743100008,65.533743100008,65.533743100008,65.533743100008,q,0.2564798998646438,65.81480480008759,65.83127150009386,,,,,,,,,,,200449,sdfsdsd,2023-04-13_19h11.30.997,bandit task,2022.2.5,60.03925369736351,
30,0,30,0,,,,,,,,,,,,,,,,,66.2338255001232,66.2338255001232,66.2338255001232,66.2338255001232,66.2338255001232,o,0.20733230002224445,66.46428850013763,66.481041100109,,,,,,,,,,,200449,sdfsdsd,2023-04-13_19h11.30.997,bandit task,2022.2.5,60.03925369736351,
31,0,31,0,,,,,,,,,,,,,,,,,66.88339180010371,66.88339180010371,66.88339180010371,66.88339180010371,66.88339180010371,w,0.21679270011372864,67.11423790012486,67.13098630006425,,,,,,,,,,,200449,sdfsdsd,2023-04-13_19h11.30.997,bandit task,2022.2.5,60.03925369736351,
32,0,32,0,,,,,,,,,,,,,,,,,67.5335017000325,67.5335017000325,67.5335017000325,67.5335017000325,67.5335017000325,p,0.17466010013595223,67.73088510008529,67.74766069999896,,,,,,,,,,,200449,sdfsdsd,2023-04-13_19h11.30.997,bandit task,2022.2.5,60.03925369736351,
33,0,33,0,,,,,,,,,,,,,,,,,68.15028699999675,68.15028699999675,68.15028699999675,68.15028699999675,68.15028699999675,q,0.2482536998577416,68.41416770010255,68.430980599951,,,,,,,,,,,200449,sdfsdsd,2023-04-13_19h11.30.997,bandit task,2022.2.5,60.03925369736351,
34,0,34,0,,,,,,,,,,,,,,,,,68.83353270008229,68.83353270008229,68.83353270008229,68.83353270008229,68.83353270008229,o,0.21194379986263812,69.06416820012964,69.08123939996585,,,,,,,,,,,200449,sdfsdsd,2023-04-13_19h11.30.997,bandit task,2022.2.5,60.03925369736351,
35,0,35,0,,,,,,,,,,,,,,,,,69.48404820007272,69.48404820007272,69.48404820007272,69.48404820007272,69.48404820007272,w,0.1959733001422137,69.69754449999891,69.71419259998947,,,,,,,,,69.71419259998947,70.11674350011162,200449,sdfsdsd,2023-04-13_19h11.30.997,bandit task,2022.2.5,60.03925369736351,
36,0,36,0,,,,,,,,,,,,,,,,,70.11674350011162,70.11674350011162,70.11674350011162,70.11674350011162,70.11674350011162,p,0.13689480000175536,70.2810138000641,70.2975767001044,,,,,,,,,,,200449,sdfsdsd,2023-04-13_19h11.30.997,bandit task,2022.2.5,60.03925369736351,
37,0,37,0,,,,,,,,,,,,,,,,,70.70017500012182,70.70017500012182,70.70017500012182,70.70017500012182,70.70017500012182,q,0.18102880008518696,70.89743430004455,70.91489959997125,,,,,,,,,,,200449,sdfsdsd,2023-04-13_19h11.30.997,bandit task,2022.2.5,60.03925369736351,
38,0,38,0,,,,,,,,,,,,,,,,,71.3164945000317,71.3164945000317,71.3164945000317,71.3164945000317,71.3164945000317,q,0.2148661999963224,71.54748459998518,71.56425560009666,,,,,,,,,,,200449,sdfsdsd,2023-04-13_19h11.30.997,bandit task,2022.2.5,60.03925369736351,
39,0,39,0,,,,,,,,,,,,,,,,,71.96659850003198,71.96659850003198,71.96659850003198,71.96659850003198,71.96659850003198,q,0.15130580007098615,72.14771859999746,72.16447079996578,,,,,,,,,,,200449,sdfsdsd,2023-04-13_19h11.30.997,bandit task,2022.2.5,60.03925369736351,
40,0,40,0,,,,,,,,,,,,,,,,,72.56715129991062,72.56715129991062,72.56715129991062,72.56715129991062,72.56715129991062,q,0.18255290016531944,72.76406170008704,72.78102619992569,,,,,,,,,,,200449,sdfsdsd,2023-04-13_19h11.30.997,bandit task,2022.2.5,60.03925369736351,
41,0,41,0,,,,,0,0,0,0,,,,,,,,,73.18354579992592,73.18354579992592,73.18354579992592,73.18354579992592,73.18354579992592,q,0.3880495000630617,73.59731979994103,73.61411960003898,74.01429189997725,74.01429189997725,74.01429189997725,988,space,3.0539248001296073,77.09726989991032,77.49725189991295,,,200449,sdfsdsd,2023-04-13_19h11.30.997,bandit task,2022.2.5,60.03925369736351,
41,0,41,0,,,,,,,,,,,,,,,,,,,,,,,,,,,,,,,,,,,,200449,sdfsdsd,2023-04-13_19h11.30.997,bandit task,2022.2.5,60.03925369736351,
42,0,42,0,0,0,0,0,,,,,,,,,77.49725189991295,77.49725189991295,space,1.1546229999512434,,,,,,,,,,,,,,,,,,,,200449,sdfsdsd,2023-04-13_19h11.30.997,bandit task,2022.2.5,60.03925369736351,
42,0,42,0,,,,,,,,,,,,,,,,,78.68354419991374,78.68354419991374,78.68354419991374,78.68354419991374,78.68354419991374,q,0.3919969000853598,79.09714709990658,79.11394820013084,,,,,,,,,,,200449,sdfsdsd,2023-04-13_19h11.30.997,bandit task,2022.2.5,60.03925369736351,
43,0,43,0,,,,,,,,,,,,,,,,,79.51632870011963,79.51632870011963,79.51632870011963,79.51632870011963,79.51632870011963,q,0.13931440003216267,79.68051599990577,79.6972046000883,,,,,,,,,,,200449,sdfsdsd,2023-04-13_19h11.30.997,bandit task,2022.2.5,60.03925369736351,
44,0,44,0,,,,,,,,,,,,,,,,,80.09978129994124,80.09978129994124,80.09978129994124,80.09978129994124,80.09978129994124,q,0.23935829987749457,80.3642210001126,80.38068479998037,,,,,,,,,,,200449,sdfsdsd,2023-04-13_19h11.30.997,bandit task,2022.2.5,60.03925369736351,
45,0,45,0,,,,,,,,,,,,,,,,,80.78382060001604,80.78382060001604,80.78382060001604,80.78382060001604,80.78382060001604,q,0.19823009986430407,80.99714120011777,81.01373609993607,,,,,,,,,,,200449,sdfsdsd,2023-04-13_19h11.30.997,bandit task,2022.2.5,60.03925369736351,
46,0,46,0,,,,,,,,,,,,,,,,,81.41621130006388,81.41621130006388,81.41621130006388,81.41621130006388,81.41621130006388,q,0.19300370011478662,81.63059050007723,81.64697790006176,,,,,,,,,,,200449,sdfsdsd,2023-04-13_19h11.30.997,bandit task,2022.2.5,60.03925369736351,
47,0,47,0,,,,,,,,,,,,,,,,,82.04983690008521,82.04983690008521,82.04983690008521,82.04983690008521,82.04983690008521,q,0.15469060000032187,82.23051519994624,82.24739190004766,,,,,,,,,,,200449,sdfsdsd,2023-04-13_19h11.30.997,bandit task,2022.2.5,60.03925369736351,
48,0,48,0,,,,,,,,,,,,,,,,,82.64978040009737,82.64978040009737,82.64978040009737,82.64978040009737,82.64978040009737,q,0.19762699981220067,82.86367739993148,82.8804383999668,,,,,,,,,,,200449,sdfsdsd,2023-04-13_19h11.30.997,bandit task,2022.2.5,60.03925369736351,
49,0,49,0,,,,,,,,,,,,,,,,,83.28280619997531,83.28280619997531,83.28280619997531,83.28280619997531,83.28280619997531,q,0.17638870002701879,83.48068140004762,83.49767270009033,,,,,,,,,,,200449,sdfsdsd,2023-04-13_19h11.30.997,bandit task,2022.2.5,60.03925369736351,
50,0,50,0,,,,,,,,,,,,,,,,,83.89958059997298,83.89958059997298,83.89958059997298,83.89958059997298,83.89958059997298,q,0.21797419991344213,84.14689299999736,84.16368829994462,,,,,,,,,,,200449,sdfsdsd,2023-04-13_19h11.30.997,bandit task,2022.2.5,60.03925369736351,
51,0,51,0,,,,,,,,,,,,,,,,,84.56601330009289,84.56601330009289,84.56601330009289,84.56601330009289,84.56601330009289,q,0.16648449981585145,84.74727210006677,84.76362320012413,,,,,,,,,,,200449,sdfsdsd,2023-04-13_19h11.30.997,bandit task,2022.2.5,60.03925369736351,
52,0,52,0,,,,,,,,,,,,,,,,,85.1658600999508,85.1658600999508,85.1658600999508,85.1658600999508,85.1658600999508,o,0.13569140015169978,85.33029760001227,85.34693909995258,,,,,,,,,85.34693909995258,85.74977320013568,200449,sdfsdsd,2023-04-13_19h11.30.997,bandit task,2022.2.5,60.03925369736351,
53,0,53,0,,,,,,,,,,,,,,,,,85.74977320013568,85.74977320013568,85.74977320013568,85.74977320013568,85.74977320013568,p,0.1784345000050962,85.9470563000068,85.96366999996826,,,,,,,,,,,200449,sdfsdsd,2023-04-13_19h11.30.997,bandit task,2022.2.5,60.03925369736351,
54,0,54,0,,,,,,,,,,,,,,,,,86.36680339998566,86.36680339998566,86.36680339998566,86.36680339998566,86.36680339998566,p,0.18092680000700057,86.563800400123,86.5806221999228,,,,,,,,,,,200449,sdfsdsd,2023-04-13_19h11.30.997,bandit task,2022.2.5,60.03925369736351,
55,0,55,0,,,,,,,,,,,,,,,,,86.98348490009084,86.98348490009084,86.98348490009084,86.98348490009084,86.98348490009084,p,0.15103659988380969,87.16401510010473,87.1805271001067,,,,,,,,,,,200449,sdfsdsd,2023-04-13_19h11.30.997,bandit task,2022.2.5,60.03925369736351,
56,0,56,0,,,,,,,,,,,,,,,,,87.58328519994393,87.58328519994393,87.58328519994393,87.58328519994393,87.58328519994393,o,0.18295040004886687,87.78030079999007,87.79683250002563,,,,,,,,,,,200449,sdfsdsd,2023-04-13_19h11.30.997,bandit task,2022.2.5,60.03925369736351,
57,0,57,0,,,,,,,,,,,,,,,,,88.19940860010684,88.19940860010684,88.19940860010684,88.19940860010684,88.19940860010684,p,0.18303969991393387,88.39681830001064,88.41339699993841,,,,,,,,,,,200449,sdfsdsd,2023-04-13_19h11.30.997,bandit task,2022.2.5,60.03925369736351,
58,0,58,0,,,,,,,,,,,,,,,,,88.8160826000385,88.8160826000385,88.8160826000385,88.8160826000385,88.8160826000385,p,0.14775350014679134,88.98038919991814,88.99691680003889,,,,,,,,,,89.39926670002751,200449,sdfsdsd,2023-04-13_19h11.30.997,bandit task,2022.2.5,60.03925369736351,
59,0,59,0,,,,,,,,,,,,,,,,,89.39926670002751,89.39926670002751,89.39926670002751,89.39926670002751,89.39926670002751,p,0.10319130006246269,89.53076090011746,89.54678869992495,,,,,,,,,,,200449,sdfsdsd,2023-04-13_19h11.30.997,bandit task,2022.2.5,60.03925369736351,
60,0,60,0,,,,,,,,,,,,,,,,,89.94935050001368,89.94935050001368,89.94935050001368,89.94935050001368,89.94935050001368,p,0.12985439994372427,90.09674479998648,90.11334479996003,,,,,,,,,,,200449,sdfsdsd,2023-04-13_19h11.30.997,bandit task,2022.2.5,60.03925369736351,
61,0,61,0,,,,,,,,,,,,,,,,,90.51683049998246,90.51683049998246,90.51683049998246,90.51683049998246,90.51683049998246,p,0.13029469992034137,90.66364299994893,90.68029629997909,,,,,,,,,,,200449,sdfsdsd,2023-04-13_19h11.30.997,bandit task,2022.2.5,60.03925369736351,
62,0,62,0,,,,,0,0,0,0,,,,,,,,,91.08306480012834,91.08306480012834,91.08306480012834,91.08306480012834,91.08306480012834,p,0.13464160007424653,91.24667060002685,91.26329010003246,91.66350300004706,91.66350300004706,91.66350300004706, ,space,7.6343444001395255,99.33016879996285,99.7300446999725,,,200449,sdfsdsd,2023-04-13_19h11.30.997,bandit task,2022.2.5,60.03925369736351,
62,0,62,0,,,,,,,,,,,,,,,,,,,,,,,,,,,,,,,,,,,,200449,sdfsdsd,2023-04-13_19h11.30.997,bandit task,2022.2.5,60.03925369736351,
63,0,63,0,0,0,0,0,,,,,,,,,99.7300446999725,99.7300446999725,space,1.878814599942416,,,,,,,,,,,,,,,,,,,,200449,sdfsdsd,2023-04-13_19h11.30.997,bandit task,2022.2.5,60.03925369736351,
63,0,63,0,,,,,,,,,,,,,,,,,101.63251790008508,101.63251790008508,101.63251790008508,101.63251790008508,101.63251790008508,q,0.4169945998582989,102.07996929995716,102.09622850012966,,,,,,,,,,,200449,sdfsdsd,2023-04-13_19h11.30.997,bandit task,2022.2.5,60.03925369736351,
64,0,64,0,,,,,,,,,,,,,,,,,102.49883860000409,102.49883860000409,102.49883860000409,102.49883860000409,102.49883860000409,w,0.18904719990678132,102.71285269991495,102.72991010011174,,,,,,,,,,,200449,sdfsdsd,2023-04-13_19h11.30.997,bandit task,2022.2.5,60.03925369736351,
65,0,65,0,,,,,,,,,,,,,,,,,103.13260399992578,103.13260399992578,103.13260399992578,103.13260399992578,103.13260399992578,o,0.24559990013949573,103.39617469999939,103.41296080010943,,,,,,,,,,,200449,sdfsdsd,2023-04-13_19h11.30.997,bandit task,2022.2.5,60.03925369736351,
66,0,66,0,,,,,,,,,,,,,,,,,103.81530879996717,103.81530879996717,103.81530879996717,103.81530879996717,103.81530879996717,p,0.17835210007615387,104.01279660011642,104.02985029993579,,,,,,,,,,,200449,sdfsdsd,2023-04-13_19h11.30.997,bandit task,2022.2.5,60.03925369736351,
67,0,67,0,,,,,,,,,,,,,,,,,104.43229010002688,104.43229010002688,104.43229010002688,104.43229010002688,104.43229010002688,p,0.16580120008438826,104.6129079000093,104.62985730008222,,,,,,,,,104.62985730008222,105.03248269995674,200449,sdfsdsd,2023-04-13_19h11.30.997,bandit task,2022.2.5,60.03925369736351,
68,0,68,0,,,,,,,,,,,,,,,,,105.03248269995674,105.03248269995674,105.03248269995674,105.03248269995674,105.03248269995674,p,0.1855391999706626,105.24625739990734,105.26280839997344,,,,,,,,,,,200449,sdfsdsd,2023-04-13_19h11.30.997,bandit task,2022.2.5,60.03925369736351,
69,0,69,0,,,,,,,,,,,,,,,,,105.66525400010869,105.66525400010869,105.66525400010869,105.66525400010869,105.66525400010869,p,0.16787160001695156,105.86284189997241,105.87983160000294,,,,,,,,,,,200449,sdfsdsd,2023-04-13_19h11.30.997,bandit task,2022.2.5,60.03925369736351,
70,0,70,0,,,,,,,,,,,,,,,,,106.28294400009327,106.28294400009327,106.28294400009327,106.28294400009327,106.28294400009327,p,0.19042050000280142,106.4961023000069,106.51293900003657,,,,,,,,,,,200449,sdfsdsd,2023-04-13_19h11.30.997,bandit task,2022.2.5,60.03925369736351,
71,0,71,0,,,,,,,,,,,,,,,,,106.91529810009524,106.91529810009524,106.91529810009524,106.91529810009524,106.91529810009524,p,0.12954200012609363,107.0625837999396,107.0797687000595,,,,,,,,,,,200449,sdfsdsd,2023-04-13_19h11.30.997,bandit task,2022.2.5,60.03925369736351,
72,0,72,0,,,,,,,,,,,,,,,,,107.48366850009188,107.48366850009188,107.48366850009188,107.48366850009188,107.48366850009188,p,0.16133429994806647,107.66266039991751,107.6795306999702,,,,,,,,,,,200449,sdfsdsd,2023-04-13_19h11.30.997,bandit task,2022.2.5,60.03925369736351,
73,0,73,0,,,,,,,,,,,,,,,,,108.08237800002098,108.08237800002098,108.08237800002098,108.08237800002098,108.08237800002098,p,0.16679909988306463,108.27971110004,108.29651289992034,,,,,,,,,,,200449,sdfsdsd,2023-04-13_19h11.30.997,bandit task,2022.2.5,60.03925369736351,
74,0,74,0,,,,,,,,,,,,,,,,,108.69831170001999,108.69831170001999,108.69831170001999,108.69831170001999,108.69831170001999,p,0.10691640013828874,108.82952930009924,108.84601569990627,,,,,,,,,,,200449,sdfsdsd,2023-04-13_19h11.30.997,bandit task,2022.2.5,60.03925369736351,
75,0,75,0,,,,,,,,,,,,,,,,,109.24844760005362,109.24844760005362,109.24844760005362,109.24844760005362,109.24844760005362,p,0.10182490013539791,109.37937360000797,109.39590499992482,,,,,,,,,,,200449,sdfsdsd,2023-04-13_19h11.30.997,bandit task,2022.2.5,60.03925369736351,
76,0,76,0,,,,,,,,,,,,,,,,,109.799131100066,109.799131100066,109.799131100066,109.799131100066,109.799131100066,p,0.1174548000562936,109.94599739997648,109.96257340000011,,,,,,,,,,,200449,sdfsdsd,2023-04-13_19h11.30.997,bandit task,2022.2.5,60.03925369736351,
77,0,77,0,,,,,,,,,,,,,,,,,110.36500090011396,110.36500090011396,110.36500090011396,110.36500090011396,110.36500090011396,p,0.14999949978664517,110.52934239991009,110.5463278000243,,,,,,,,,,,200449,sdfsdsd,2023-04-13_19h11.30.997,bandit task,2022.2.5,60.03925369736351,
78,0,78,0,,,,,,,,,,,,,,,,,110.94813919998705,110.94813919998705,110.94813919998705,110.94813919998705,110.94813919998705,p,0.1679682000540197,111.14577260008082,111.16249000001699,,,,,,,,,,,200449,sdfsdsd,2023-04-13_19h11.30.997,bandit task,2022.2.5,60.03925369736351,
79,0,79,0,,,,,,,,,,,,,,,,,111.56582319992594,111.56582319992594,111.56582319992594,111.56582319992594,111.56582319992594,p,0.1499112001620233,111.72960090008564,111.74680530000478,,,,,,,,,,,200449,sdfsdsd,2023-04-13_19h11.30.997,bandit task,2022.2.5,60.03925369736351,
80,0,80,0,,,,,,,,,,,,,,,,,112.14934449992143,112.14934449992143,112.14934449992143,112.14934449992143,112.14934449992143,p,0.09699909994378686,112.26275350013748,112.2795061999932,,,,,,,,,,,200449,sdfsdsd,2023-04-13_19h11.30.997,bandit task,2022.2.5,60.03925369736351,
81,0,81,0,,,,,,,,,,,,,,,,,112.68263610010035,112.68263610010035,112.68263610010035,112.68263610010035,112.68263610010035,p,0.10007170005701482,112.79586230008863,112.81245590001345,,,,,,,,,112.81245590001345,113.21579229994677,200449,sdfsdsd,2023-04-13_19h11.30.997,bandit task,2022.2.5,60.03925369736351,
82,0,82,0,,,,,,,,,,,,,,,,,113.21579229994677,113.21579229994677,113.21579229994677,113.21579229994677,113.21579229994677,p,0.18241459992714226,113.41236250009388,113.42937540006824,,,,,,,,,,,200449,sdfsdsd,2023-04-13_19h11.30.997,bandit task,2022.2.5,60.03925369736351,
,,,,,,,,,,,,,,,,,,,,113.83198429993354,113.83198429993354,113.83198429993354,113.83198429993354,113.83198429993354,p,0.16662709997035563,114.01244520000182,114.0295780999586,114.42967729992233,114.42967729992233,114.42967729992233,,,,,,,,,,,,,,
